aX,aY,aZ,gX,gY,gZ
0.095,0.221,1.557,6.042,-135.681,14.648
0.1,0.193,1.592,11.719,-172.852,19.714
0.049,0.119,1.615,23.865,-211.121,26.917
0.001,0.08,1.579,32.654,-250.854,35.095
-0.039,0.042,1.511,41.565,-286.743,41.992
-0.065,-0.057,1.405,58.838,-311.401,45.532
-0.064,-0.16,1.318,72.266,-327.271,46.997
-0.055,-0.266,1.26,76.111,-339.111,44.678
-0.042,-0.353,1.19,75.928,-350.281,38.635
-0.052,-0.409,1.137,76.843,-362,29.968
-0.074,-0.472,1.071,78.918,-374.39,19.714
-0.022,-0.55,1.041,87.646,-385.742,4.944
0.016,-0.583,0.955,97.656,-396.973,-15.137
-0.025,-0.632,0.918,107.422,-423.828,-34.302
-0.186,-0.705,0.735,112.976,-461.06,-50.537
-0.298,-0.715,0.693,115.173,-478.699,-54.932
-0.302,-0.73,0.69,120.667,-478.76,-56.763
-0.252,-0.692,0.629,137.634,-467.957,-62.256
-0.14,-0.807,0.567,163.33,-448.669,-77.148
-0.016,-0.962,0.434,187.012,-434.448,-108.765
0.065,-0.961,0.253,196.35,-440.552,-152.649
-0.102,-0.838,0.074,194.824,-464.966,-198.242
-0.268,-0.753,-0.17,190.979,-497.131,-224.487
-0.364,-0.679,-0.461,188.843,-520.264,-230.347
-0.432,-0.732,-0.714,187.622,-527.588,-226.868
-0.684,-0.755,-1.103,181.335,-522.095,-217.834
-1.018,-0.813,-1.363,161.865,-495.483,-190.491
-1.059,-0.903,-1.506,132.019,-444.58,-142.822
-0.931,-0.942,-1.55,96.802,-389.099,-96.863
-0.757,-0.962,-1.506,61.829,-337.891,-62.5
-0.537,-0.948,-1.366,31.128,-292.053,-45.044
-0.292,-0.876,-1.256,8.545,-256.348,-45.715
-0.139,-0.757,-1.048,-7.568,-235.901,-58.533
0.017,-0.552,-0.844,-17.334,-234.131,-78.613
0.13,-0.364,-0.677,-15.503,-244.385,-103.088
0.228,-0.246,-0.596,4.578,-250.61,-133.423
0.276,-0.127,-0.52,33.203,-244.69,-167.725
0.291,0.081,-0.446,66.223,-220.886,-204.224
0.01,0.173,-0.547,98.755,-194.397,-230.286
-0.138,0.26,-0.822,106.934,-198.242,-227.539
-0.156,0.398,-0.893,77.698,-217.224,-196.35
-0.034,0.633,-0.903,38.33,-237.488,-165.039
0.032,0.825,-0.897,3.967,-248.657,-145.813
0.093,1.006,-0.789,-15.32,-243.347,-136.047
0.145,1.099,-0.649,-16.174,-224.731,-131.226
0.229,1.145,-0.55,2.502,-198.486,-132.996
0.288,1.125,-0.553,31.982,-171.143,-142.395
0.238,1.085,-0.665,56.824,-152.344,-156.311
0.067,0.981,-0.756,68.481,-136.414,-166.992
-0.043,0.895,-0.823,65.735,-121.704,-162.231
-0.058,0.855,-0.872,57.922,-106.14,-147.339
-0.094,0.81,-0.83,48.828,-90.881,-133.545
-0.123,0.791,-0.675,41.382,-72.266,-124.634
-0.027,0.897,-0.508,39.185,-51.697,-119.995
-0.025,0.872,-0.438,51.758,-44.922,-115.601
0.087,0.934,-0.508,66.406,-56.091,-120.361
-0.103,0.966,-0.669,75.867,-77.087,-131.226
-0.269,0.987,-0.877,81.299,-99.67,-136.047
-0.521,0.937,-1.079,81.787,-114.319,-121.216
-0.68,0.865,-1.203,71.045,-105.835,-97.9
-0.577,0.845,-1.249,53.711,-73.547,-66.711
-0.549,0.732,-1.291,39.001,-42.603,-36.377
-0.443,0.855,-1.134,17.09,-11.353,-6.592
-0.169,0.636,-1.103,12.878,6.47,15.381
-0.146,0.631,-1.047,-2.075,-2.563,28.381
-0.016,0.603,-0.912,-13.55,6.042,37.109
0.091,0.647,-0.802,-10.254,17.212,34.851
0.16,0.558,-0.783,4.395,26.55,31.555
0.176,0.483,-0.844,14.221,23.437,24.475
0.194,0.51,-0.869,12.451,9.644,19.47
0.146,0.483,-0.961,15.137,-5.615,14.404
0.074,0.429,-1.058,11.536,-20.691,7.751
0.026,0.38,-1.108,5.676,-26.794,2.38
0.005,0.396,-1.08,0.061,-24.963,2.014
0.059,0.421,-1.026,-3.845,-16.602,6.775
0.158,0.437,-0.972,-4.944,-6.531,9.094
0.136,0.418,-0.926,0.61,-1.709,7.935
0.182,0.441,-0.833,7.629,6.165,1.038
0.1,0.388,-0.848,16.846,8.179,-6.592
0.074,0.391,-0.893,26.489,6.165,-14.587
0.039,0.412,-0.939,27.039,-2.014,-20.203
-0.013,0.438,-0.994,24.841,-19.592,-23.621
-0.09,0.434,-1.056,18.005,-38.635,-23.376
-0.136,0.461,-1.075,12.207,-48.218,-19.47
-0.186,0.437,-1.113,6.104,-46.509,-11.292
-0.163,0.45,-1.078,3.784,-32.227,-5.798
-0.115,0.462,-0.996,2.258,-11.292,-2.014
-0.07,0.425,-0.946,5.92,5.432,1.831
-0.038,0.408,-0.92,11.841,14.465,4.089
0.001,0.406,-0.9,17.212,16.785,4.089
0.008,0.393,-0.926,17.578,10.132,2.563
0,0.393,-0.963,15.747,0.061,-1.038
-0.046,0.386,-1.013,12.634,-10.62,-2.563
-0.086,0.389,-1.038,8.484,-17.273,-1.892
-0.113,0.421,-1.031,5.615,-16.296,0.671
-0.132,0.446,-1.006,3.174,-8.85,3.784
-0.133,0.451,-0.977,2.136,1.648,7.019
-0.113,0.452,-0.932,2.258,12.512,10.01
-0.079,0.448,-0.9,6.409,20.02,11.047
-0.034,0.424,-0.904,10.071,21.179,10.132
-0.008,0.408,-0.918,10.071,15.564,7.507
-0.017,0.407,-0.927,8.057,5.737,3.906
-0.054,0.414,-0.936,6.226,-3.113,1.587
-0.09,0.418,-0.949,3.723,-6.775,2.38
-0.104,0.424,-0.951,1.038,-3.113,5.188
-0.097,0.423,-0.943,3.906,5.859,8.545
-0.07,0.417,-0.924,5.798,15.381,12.085
-0.043,0.415,-0.9,5.066,22.278,14.709
-0.017,0.402,-0.887,6.47,25.757,15.198
0.014,0.395,-0.893,9.033,23.621,13.306
0.039,0.397,-0.894,11.108,17.639,9.949
0.033,0.375,-0.914,12.39,8.545,6.592
0.018,0.378,-0.937,8.728,0.122,3.845
0,0.383,-0.947,6.958,-3.357,1.77
-0.026,0.385,-0.954,7.996,-2.625,1.343
-0.037,0.389,-0.953,6.836,1.953,2.563
-0.031,0.384,-0.956,6.47,8.301,4.333
-0.021,0.377,-0.953,6.775,12.451,6.104
0.002,0.388,-0.934,5.92,12.451,6.958
-0.849,0.228,-0.635,31.799,84.045,6.287
-0.803,0.188,-0.672,31.86,88.684,7.202
-0.772,0.166,-0.673,24.048,83.618,6.653
-0.767,0.173,-0.649,10.62,67.993,5.92
-0.79,0.186,-0.616,-0.793,49.927,4.517
-0.826,0.202,-0.588,-9.949,35.645,2.319
-0.871,0.221,-0.57,-13.489,28.564,1.038
-0.91,0.239,-0.549,-10.864,28.32,0.061
-0.931,0.249,-0.53,-5.92,33.997,0.244
-0.948,0.252,-0.529,1.099,42.419,1.77
-0.965,0.255,-0.528,5.798,52.185,4.517
-0.971,0.271,-0.52,8.606,64.331,7.935
-0.966,0.279,-0.512,16.357,78.247,11.963
-0.954,0.275,-0.514,23.315,92.041,16.174
-0.934,0.275,-0.512,27.588,104.675,19.287
-0.928,0.246,-0.521,32.288,114.868,21.118
-0.926,0.218,-0.509,31.372,122.375,22.705
-0.927,0.203,-0.486,30.396,127.625,24.109
-0.918,0.183,-0.459,28.015,131.714,25.879
-0.914,0.17,-0.425,27.466,134.033,27.161
-0.911,0.171,-0.383,24.292,134.827,28.687
-0.906,0.174,-0.348,27.649,136.597,29.236
-0.913,0.18,-0.322,28.992,140.015,28.687
-0.922,0.19,-0.301,32.593,145.325,27.649
-0.927,0.19,-0.283,38.208,153.015,27.039
-0.929,0.189,-0.264,40.833,160.4,26.855
-0.942,0.177,-0.247,44.189,165.344,27.222
-0.952,0.155,-0.235,44.006,168.701,28.687
-0.96,0.138,-0.219,44.556,171.997,29.968
-0.948,0.134,-0.197,40.405,174.805,31.982
-0.92,0.136,-0.165,38.879,175.781,32.532
-0.899,0.129,-0.108,34.302,173.523,31.616
-0.899,0.129,-0.043,34.851,167.114,29.114
-0.909,0.143,-0.002,35.889,160.156,26.428
-0.93,0.153,0.016,37.415,155.701,23.499
-0.956,0.155,0.025,40.894,153.503,20.508
-0.969,0.146,0.026,44.739,153.931,18.982
-0.991,0.138,0.052,46.326,155.457,18.921
-1,0.138,0.071,44.128,157.532,20.63
-1.006,0.121,0.081,47.241,162.17,21.729
-0.997,0.112,0.095,46.936,167.786,23.315
-0.972,0.097,0.122,43.579,172.302,24.231
-0.954,0.082,0.155,43.762,174.255,23.926
-0.929,0.08,0.19,41.382,172.668,24.536
-0.932,0.089,0.229,38.33,167.419,24.841
-0.93,0.102,0.27,37.72,160.767,25.818
-0.924,0.099,0.31,34.973,155.334,26.978
-0.921,0.084,0.342,36.377,150.635,26.855
-0.919,0.08,0.362,38.696,147.278,26.123
-0.911,0.075,0.383,39.063,146.057,25.879
-0.897,0.07,0.412,40.161,146.606,25.391
-0.875,0.064,0.436,41.565,147.705,24.475
-0.87,0.062,0.464,43.823,148.56,22.522
-0.877,0.069,0.49,43.64,149.414,21.973
-0.869,0.07,0.492,49.561,153.931,21.423
-0.86,0.062,0.484,55.176,162.598,20.569
-0.841,0.061,0.492,54.016,172.241,20.996
-0.798,0.044,0.513,54.321,180.725,21.79
-0.748,0.015,0.549,55.298,184.937,21.912
-0.714,-0.001,0.595,50.72,181.641,21.667
-0.687,-0.012,0.633,44.739,172.485,21.729
-0.672,-0.026,0.661,42.725,160.522,21.423
-0.663,-0.031,0.685,38.574,147.4,22.095
-0.651,-0.034,0.699,33.264,136.108,23.01
-0.642,-0.035,0.714,32.715,128.174,22.583
-0.629,-0.031,0.732,29.785,123.718,21.973
-0.614,-0.033,0.738,31.921,123.535,20.081
-0.599,-0.039,0.737,33.997,125.427,17.517
-0.591,-0.046,0.74,33.997,127.625,15.198
-0.587,-0.051,0.748,35.767,129.639,12.512
-0.594,-0.059,0.76,36.194,130.31,10.925
-0.594,-0.052,0.771,33.936,131.226,11.047
-0.583,-0.059,0.772,36.865,133.606,11.047
-0.566,-0.062,0.773,37.231,137.146,11.78
-0.541,-0.068,0.775,36.011,141.235,12.39
-0.507,-0.078,0.78,37.109,144.226,12.39
-0.477,-0.078,0.799,33.936,144.47,13.184
-0.447,-0.076,0.829,28.259,141.846,14.709
-0.411,-0.075,0.865,23.01,135.925,16.785
-0.381,-0.083,0.896,19.348,126.77,18.738
-0.359,-0.09,0.917,19.348,116.516,18.738
-0.357,-0.093,0.929,18.127,106.873,18.311
-0.366,-0.093,0.926,17.639,99.548,17.822
-0.374,-0.09,0.919,18.799,95.276,18.188
-0.368,-0.083,0.92,16.052,95.215,19.958
-0.348,-0.08,0.932,16.663,97.961,21.423
-0.317,-0.082,0.948,18.494,101.44,21.729
-0.292,-0.099,0.955,19.47,103.699,20.447
-0.271,-0.109,0.959,23.254,103.882,18.372
-0.248,-0.113,0.96,23.499,103.516,16.357
-0.216,-0.121,0.953,26.062,102.661,13.367
-0.189,-0.137,0.95,27.893,99.854,9.766
-0.168,-0.142,0.955,23.071,92.957,7.385
-0.158,-0.14,0.964,20.325,82.153,5.92
-0.168,-0.133,0.972,16.968,69.397,5.371
-0.183,-0.128,0.981,12.329,56.824,6.653
-0.19,-0.114,0.992,6.226,46.509,10.01
-0.209,-0.105,0.993,4.7,38.452,13.184
-0.218,-0.1,0.992,5.066,33.081,17.09
-0.211,-0.095,0.997,2.625,30.945,21.729
-0.197,-0.104,1,4.578,30.823,23.987
-0.18,-0.114,0.998,8.118,31.372,23.804
-0.171,-0.12,0.993,8.362,32.837,22.095
-0.163,-0.124,0.986,10.803,35.95,19.409
-0.153,-0.133,0.976,14.771,40.039,15.747
-0.152,-0.136,0.966,13.672,43.579,13.184
-0.149,-0.132,0.971,12.146,45.41,12.573
-0.138,-0.126,0.981,9.827,46.082,13.55
-0.128,-0.12,0.993,7.812,44.983,14.771
-0.12,-0.117,1.002,7.507,42.297,15.869
-0.107,-0.109,1.018,8.85,38.94,16.663
-0.096,-0.105,1.031,10.254,35.278,16.113
-0.088,-0.111,1.035,12.329,31.006,14.16
-0.085,-0.119,1.029,13.855,26.55,11.414
-0.081,-0.126,1.015,14.526,22.339,8.545
-0.08,-0.126,1.001,16.846,18.555,5.615
-0.083,-0.121,0.988,18.555,15.808,3.235
-0.093,-0.115,0.974,17.7,14.526,2.136
-0.111,-0.107,0.965,16.785,14.282,2.747
-0.282,-0.374,1.075,51.392,-235.84,55.786
-0.301,-0.436,1.04,56.58,-252.38,51.208
-0.316,-0.491,1,58.044,-272.156,48.035
-0.399,-0.51,0.96,53.528,-293.884,46.814
-0.489,-0.531,0.924,48.584,-315.552,49.316
-0.554,-0.558,0.903,46.875,-332.336,56.03
-0.573,-0.601,0.904,48.096,-340.637,64.941
-0.552,-0.675,0.903,53.65,-340.393,70.679
-0.503,-0.779,0.917,68.787,-332.336,69.458
-0.468,-0.895,0.922,88.196,-322.754,61.89
-0.459,-0.968,0.864,104.675,-313.416,50.049
-0.469,-1.008,0.769,120.239,-301.025,36.987
-0.448,-1.06,0.694,130.127,-291.016,26.794
-0.395,-1.085,0.688,129.211,-294.006,17.822
-0.354,-1.106,0.687,130.31,-310.791,3.845
-0.33,-1.135,0.633,140.564,-333.313,-16.724
-0.285,-1.12,0.558,157.41,-354.614,-43.213
-0.209,-1.077,0.435,181.946,-373.962,-73.975
-0.127,-1.018,0.239,211.182,-389.771,-106.873
-0.132,-0.928,-0.059,236.328,-402.161,-135.925
-0.141,-0.929,-0.38,252.319,-410.095,-153.137
-0.147,-0.974,-0.686,251.587,-413.513,-157.532
-0.11,-1.051,-0.886,232.239,-410.217,-153.625
-0.069,-1.102,-0.974,207.947,-396.545,-149.17
0.02,-1.061,-0.93,192.383,-372.131,-151.611
0.102,-0.967,-0.873,188.66,-342.529,-164.795
0.176,-0.881,-0.773,198.853,-299.194,-190.43
0.216,-0.754,-0.693,218.445,-256.104,-215.21
0.275,-0.618,-0.707,237.488,-228.638,-240.295
0.296,-0.455,-0.746,250.305,-214.783,-263.123
0.218,-0.302,-0.888,251.282,-214.6,-285.095
0.156,-0.247,-1.092,231.934,-227.905,-294.617
0.126,-0.121,-1.186,191.65,-248.84,-293.213
0.125,0.125,-1.151,138,-264.404,-294.739
0.021,0.387,-1.016,94.849,-266.235,-297.546
-0.074,0.607,-0.884,64.453,-272.583,-288.391
-0.124,0.799,-0.766,41.26,-287.231,-264.893
-0.141,0.934,-0.688,31.067,-291.565,-235.291
-0.087,1.007,-0.607,30.823,-275.146,-208.862
0.006,1.101,-0.45,42.725,-239.99,-190.979
0.127,1.139,-0.348,63.171,-199.524,-179.626
0.249,1.106,-0.348,96.069,-165.161,-172.119
0.333,1.044,-0.419,123.291,-142.7,-169.495
0.375,0.987,-0.531,135.254,-133.362,-170.288
0.36,0.963,-0.653,132.385,-134.338,-167.908
0.348,0.922,-0.814,124.756,-137.878,-163.513
0.312,0.919,-0.939,107.666,-136.353,-158.447
0.249,0.894,-0.996,90.698,-125.366,-152.466
0.219,0.941,-0.927,73.853,-103.333,-145.569
0.223,1.059,-0.77,65.491,-70.862,-139.771
0.214,1.082,-0.647,71.35,-34.851,-133.606
0.13,1.017,-0.572,85.754,1.282,-128.418
0.049,1.063,-0.559,99.365,40.222,-121.033
-0.065,0.872,-0.612,108.154,61.279,-107.788
-0.125,0.901,-0.606,96.13,57.678,-95.215
-0.191,0.955,-0.582,74.768,51.819,-86.975
-0.249,1.005,-0.553,60.974,51.514,-81.848
-0.203,1.146,-0.63,58.838,47.668,-81.909
-0.401,1.075,-0.625,62.683,27.71,-83.374
-0.646,0.921,-0.765,56.58,6.714,-76.965
-0.629,1.026,-0.892,33.813,-19.592,-59.509
-0.556,0.927,-0.909,15.747,-30.334,-32.837
-0.49,0.815,-0.959,3.357,-30.457,0.488
-0.288,0.803,-0.959,-6.836,-6.409,29.602
-0.091,0.721,-0.876,-9.949,27.1,55.847
0.156,0.681,-0.772,-5.615,54.504,65.43
0.363,0.644,-0.675,-2.808,66.956,56.213
0.408,0.605,-0.647,4.15,56.152,37.903
0.368,0.633,-0.684,6.714,27.527,15.137
0.232,0.67,-0.776,3.601,-6.104,-6.165
0.028,0.715,-0.904,-1.099,-33.997,-20.691
-0.174,0.765,-1.004,-6.47,-44.434,-23.56
-0.298,0.776,-1.062,-9.827,-40.039,-13.55
-0.322,0.803,-1.058,-15.076,-24.292,3.967
-0.26,0.818,-1.003,-19.836,-1.648,23.254
-0.15,0.802,-0.897,-17.029,19.836,38.757
-0.033,0.756,-0.81,-6.714,36.865,45.532
0.047,0.669,-0.803,3.174,46.448,44.983
0.109,0.599,-0.823,9.216,45.715,39.734
0.133,0.561,-0.816,11.658,36.926,30.09
0.101,0.555,-0.802,8.484,23.376,17.151
0.034,0.558,-0.815,3.845,7.446,5.005
-0.038,0.573,-0.861,1.892,-9.277,-2.93
-0.104,0.607,-0.911,-0.183,-22.583,-7.385
-0.154,0.641,-0.934,-1.953,-27.161,-8.972
-0.18,0.654,-0.941,-4.944,-22.583,-7.019
-0.172,0.649,-0.924,-4.089,-11.597,-2.808
-0.138,0.636,-0.884,-0.61,2.136,2.502
-0.085,0.614,-0.839,4.639,16.113,8.118
-0.028,0.578,-0.818,7.812,26.367,12.085
0.029,0.54,-0.816,11.78,30.457,12.878
0.068,0.528,-0.819,11.353,27.1,10.01
0.068,0.529,-0.824,10.071,17.7,3.174
0.031,0.543,-0.819,7.812,7.507,-4.517
-0.041,0.575,-0.809,7.568,-0.427,-10.437
-0.121,0.574,-0.809,7.812,-4.028,-11.597
-0.163,0.573,-0.818,11.23,-2.075,-8.667
-0.162,0.566,-0.828,11.414,5.127,-3.418
-0.133,0.558,-0.825,14.038,14.16,1.77
-0.099,0.554,-0.818,12.878,19.043,6.348
-0.074,0.547,-0.813,12.451,19.165,8.24
-0.065,0.544,-0.815,10.376,16.052,8.118
-0.056,0.542,-0.816,8.24,11.658,7.751
-0.05,0.544,-0.807,6.104,7.69,6.897
-0.047,0.543,-0.799,4.761,5.127,5.432
-0.045,0.544,-0.789,5.615,5.188,4.211
-0.042,0.542,-0.784,6.958,7.141,2.686
-0.043,0.539,-0.795,9.644,8.728,1.099
-0.045,0.545,-0.808,12.146,8.728,0.366
-0.052,0.545,-0.828,13.672,8.179,-0.061
-0.063,0.544,-0.847,14.038,8.118,-0.061
-0.072,0.548,-0.851,12.329,8.484,0.549
-0.079,0.554,-0.847,11.597,8.911,1.038
-0.078,0.546,-0.842,10.437,9.216,1.892
-0.07,0.551,-0.836,9.277,9.521,2.075
-0.067,0.551,-0.829,7.568,9.094,1.404
-0.066,0.558,-0.825,8.606,7.874,0
-0.072,0.56,-0.824,7.812,6.287,-0.854
-0.085,0.562,-0.825,9.827,5.371,-1.648
-0.528,0.393,-0.774,13.306,39.917,6.897
-0.518,0.388,-0.772,14.771,40.955,8.057
-0.512,0.39,-0.763,14.282,40.1,7.812
-0.513,0.396,-0.752,9.888,37.659,6.958
-0.521,0.405,-0.743,8.423,34.302,5.371
-0.533,0.417,-0.73,9.033,31.799,4.333
-0.545,0.427,-0.722,10.193,30.212,3.967
-0.563,0.425,-0.731,10.01,30.151,4.639
-0.581,0.42,-0.743,12.695,33.386,5.737
-0.601,0.417,-0.746,15.32,40.222,7.202
-0.598,0.404,-0.754,14.709,47.852,9.888
-0.575,0.38,-0.762,14.954,54.626,12.573
-0.542,0.359,-0.752,14.221,56.641,13.245
-0.516,0.357,-0.729,6.775,51.208,12.695
-0.508,0.367,-0.703,0.244,41.016,10.62
-0.519,0.381,-0.679,-1.77,30.029,7.202
-0.544,0.395,-0.659,-3.113,21.729,4.15
-0.579,0.405,-0.658,2.136,17.761,1.953
-0.61,0.402,-0.687,6.287,18.555,1.77
-0.634,0.395,-0.718,10.254,24.292,2.625
-0.65,0.395,-0.734,14.771,33.325,3.906
-0.664,0.4,-0.723,15.625,42.969,6.592
-0.675,0.399,-0.708,14.832,51.758,10.437
-0.669,0.396,-0.698,16.907,59.875,14.221
-0.645,0.389,-0.687,17.334,66.467,17.09
-0.616,0.379,-0.681,19.104,68.848,17.761
-0.597,0.375,-0.662,14.404,65.247,16.907
-0.587,0.381,-0.634,11.902,56.396,14.648
-0.598,0.388,-0.623,9.888,45.227,11.414
-0.625,0.39,-0.622,9.399,35.95,8.545
-0.659,0.393,-0.632,9.705,31.799,5.981
-0.697,0.393,-0.637,12.512,33.508,4.639
-0.73,0.392,-0.634,14.771,39.856,5.432
-0.752,0.392,-0.622,17.761,47.607,7.751
-0.767,0.394,-0.609,21.301,55.115,11.902
-0.752,0.376,-0.628,25.696,61.218,17.212
-0.7,0.342,-0.658,28.137,65.063,21.118
-0.65,0.328,-0.661,22.705,63.232,21.362
-0.604,0.331,-0.64,14.771,53.65,18.799
-0.59,0.339,-0.617,5.737,38.513,14.038
-0.608,0.351,-0.593,0.366,23.132,7.629
-0.66,0.358,-0.576,-3.54,12.634,1.16
-0.712,0.371,-0.567,-1.77,9.46,-3.052
-0.757,0.376,-0.554,1.038,11.414,-4.15
-0.779,0.384,-0.539,5.127,16.479,-3.235
-0.784,0.386,-0.531,11.597,21.606,-0.977
-0.78,0.383,-0.53,15.381,24.902,2.319
-0.767,0.385,-0.531,19.592,26.428,5.432
-0.754,0.381,-0.537,22.095,26.489,7.69
-0.745,0.379,-0.551,24.17,26.55,8.85
-0.734,0.381,-0.567,23.926,26.733,8.972
-0.715,0.368,-0.593,24.963,26.306,7.812
-0.695,0.353,-0.61,19.714,23.499,5.737
-0.686,0.352,-0.61,13.123,16.846,2.441
-0.693,0.35,-0.6,5.249,8.057,-1.16
-0.715,0.356,-0.584,-1.343,-0.427,-4.456
-0.747,0.372,-0.569,-5.249,-6.714,-6.775
-0.78,0.386,-0.56,-7.263,-9.338,-6.775
-0.799,0.401,-0.554,-6.165,-7.385,-4.822
-0.804,0.414,-0.548,-2.563,-1.831,-2.014
-0.797,0.419,-0.548,2.38,6.104,1.221
-0.788,0.414,-0.561,7.751,13.489,4.761
-0.782,0.406,-0.579,11.353,20.081,7.996
-0.773,0.399,-0.596,12.024,25.757,11.169
-0.763,0.395,-0.602,11.719,30.945,13.367
-0.757,0.388,-0.602,10.559,35.034,14.404
-0.765,0.373,-0.601,8.179,37.109,14.465
-0.781,0.368,-0.592,4.333,38.757,14.587
-0.79,0.373,-0.57,2.075,40.466,15.259
-0.803,0.379,-0.547,-0.854,41.504,17.395
-0.808,0.37,-0.539,-0.671,42.297,20.508
-0.818,0.371,-0.529,-0.549,43.823,23.865
-0.818,0.367,-0.527,1.221,48.157,26.917
-0.827,0.352,-0.537,3.845,53.772,30.151
-0.834,0.345,-0.538,4.944,62.073,32.898
-0.835,0.339,-0.529,7.69,71.411,34.424
-0.829,0.333,-0.519,8.85,79.346,36.316
-0.832,0.329,-0.514,10.193,83.984,37.842
-0.842,0.313,-0.518,9.949,87.158,38.818
-0.861,0.282,-0.525,10.254,90.393,39.307
-0.853,0.303,-0.51,5.249,94.299,40.039
-0.822,0.338,-0.484,2.93,97.778,39.978
-0.823,0.315,-0.458,2.563,99.243,41.504
-0.827,0.292,-0.444,3.906,98.145,41.504
-0.834,0.275,-0.438,3.357,96.252,41.138
-0.848,0.255,-0.437,1.221,95.215,40.283
-0.864,0.24,-0.428,0.183,96.313,39.551
-0.878,0.234,-0.408,-3.357,98.083,39.978
-0.893,0.225,-0.397,-7.202,98.755,41.321
-0.908,0.224,-0.383,-9.949,99.304,43.213
-0.924,0.218,-0.365,-13.977,101.807,46.143
-0.946,0.216,-0.353,-16.663,106.079,49.255
-0.962,0.216,-0.336,-20.325,113.647,52.979
-0.969,0.225,-0.326,-19.958,124.634,56.03
-0.965,0.225,-0.32,-21.057,138.794,58.594
-0.968,0.22,-0.309,-23.56,154.602,60.974
-0.967,0.212,-0.278,-22.766,169.434,62.622
-0.967,0.207,-0.231,-23.437,181.519,64.27
-0.968,0.207,-0.18,-22.827,189.087,65.674
-0.962,0.201,-0.123,-20.691,192.261,67.444
-0.941,0.194,-0.071,-17.822,191.711,69.702
-0.937,0.188,-0.026,-13,189.209,70.374
-0.96,0.167,0.015,-8.606,186.401,69.458
-0.975,0.155,0.036,-4.395,186.035,68.359
-0.988,0.166,0.048,0.854,190.552,66.406
-1.001,0.177,0.068,4.944,198.914,65.247
-1.007,0.175,0.078,14.465,212.402,63.843
-0.995,0.162,0.094,22.034,230.469,60.913
-0.977,0.143,0.114,31.921,249.084,56.152
-0.936,0.097,0.138,38.025,265.869,51.88
-0.874,0.039,0.175,44.922,276.245,45.959
-0.827,-0.007,0.212,44.556,278.992,39.612
-0.812,-0.032,0.253,44.006,275.757,31.921
-0.813,-0.026,0.296,39.063,271.851,25.818
-0.816,0,0.354,34.485,268.555,21.545
-0.82,0.019,0.416,36.438,265.137,20.02
-0.802,0.028,0.455,38.879,263.489,20.203
-0.771,0.031,0.496,46.143,265.259,18.311
-0.74,0.024,0.537,51.025,268.616,15.381
-0.219,-0.539,1.006,89.111,-262.878,33.569
-0.277,-0.545,0.964,91.614,-277.71,30.701
-0.324,-0.57,0.923,92.224,-296.265,32.654
-0.36,-0.623,0.863,92.346,-316.04,35.278
-0.415,-0.696,0.811,95.947,-330.2,34.607
-0.468,-0.739,0.751,103.76,-335.022,29.846
-0.499,-0.772,0.67,116.211,-329.651,22.583
-0.54,-0.829,0.557,127.014,-317.322,13.733
-0.552,-0.881,0.449,135.254,-302.795,4.761
-0.528,-0.923,0.377,132.69,-296.082,-0.854
-0.479,-0.962,0.348,121.033,-300.11,-5.31
-0.45,-1.003,0.328,113.647,-310.73,-16.174
-0.414,-1.039,0.296,111.206,-323.242,-32.471
-0.392,-1.051,0.246,111.511,-335.266,-52.185
-0.372,-1.046,0.198,115.906,-349.243,-74.89
-0.376,-1.039,0.147,121.521,-362.915,-97.351
-0.378,-0.99,0.074,126.038,-377.991,-118.652
-0.473,-0.837,-0.028,133.057,-386.719,-136.902
-0.582,-0.772,-0.154,140.991,-390.442,-143.616
-0.585,-0.757,-0.213,150.024,-392.7,-136.414
-0.472,-0.78,-0.333,156.982,-394.958,-132.751
-0.319,-0.794,-0.447,163.208,-390.259,-139.832
-0.23,-0.817,-0.523,167.603,-375.671,-157.349
-0.215,-0.751,-0.609,167.603,-368.347,-184.875
-0.182,-0.674,-0.652,167.297,-359.253,-217.407
-0.176,-0.574,-0.69,169.678,-343.933,-243.958
-0.166,-0.468,-0.701,178.833,-322.449,-266.357
-0.136,-0.335,-0.707,190.857,-302.185,-285.828
-0.204,-0.234,-0.736,205.994,-282.349,-304.993
-0.395,-0.182,-0.848,217.468,-262.817,-319.092
-0.584,-0.177,-1.025,212.769,-255.249,-311.279
-0.676,-0.231,-1.255,189.819,-265.808,-278.809
-0.746,-0.248,-1.405,148.499,-278.198,-239.502
-0.8,-0.212,-1.434,99.426,-276.184,-203.796
-0.756,-0.172,-1.356,55.847,-257.812,-168.701
-0.62,-0.101,-1.153,25.024,-224.915,-138.062
-0.426,-0.042,-0.95,12.451,-187.317,-116.638
-0.186,0.026,-0.761,15.442,-156.433,-104.553
0.062,0.123,-0.615,23.743,-141.541,-101.563
0.263,0.222,-0.527,38.025,-139.771,-111.023
0.343,0.33,-0.514,57.983,-142.334,-133.728
0.347,0.417,-0.592,78.308,-145.02,-159.973
0.291,0.45,-0.679,90.82,-149.78,-180.664
0.138,0.535,-0.707,85.938,-161.621,-192.688
0.06,0.614,-0.705,74.402,-172.546,-194.702
-0.02,0.688,-0.697,68.604,-172.363,-188.232
-0.068,0.748,-0.69,67.566,-159.241,-176.697
-0.033,0.812,-0.652,62.5,-138.245,-160.522
0.071,0.899,-0.571,62.622,-117.188,-145.02
0.197,0.996,-0.513,69.702,-100.464,-135.193
0.287,1.039,-0.537,79.346,-89.905,-131.653
0.32,1.043,-0.651,93.018,-84.534,-133.362
0.256,1.025,-0.794,100.647,-80.505,-138.611
0.131,0.978,-0.934,97.473,-72.815,-141.174
-0.004,0.919,-1.013,88.867,-59.143,-138.855
-0.117,0.876,-1.014,69.397,-44.983,-129.7
-0.193,0.884,-0.953,43.213,-34.79,-116.15
-0.224,0.946,-0.839,19.714,-28.687,-99.854
-0.248,0.992,-0.681,11.475,-24.109,-83.13
-0.277,0.969,-0.588,17.456,-15.808,-68.298
-0.306,0.829,-0.594,32.898,-1.709,-54.504
-0.292,0.733,-0.634,48.889,15.442,-40.955
-0.224,0.719,-0.713,54.993,27.832,-26.611
-0.151,0.674,-0.825,49.927,28.381,-9.705
-0.07,0.608,-0.936,38.757,22.583,5.676
0.02,0.563,-0.997,23.743,18.738,14.587
0.098,0.524,-0.974,6.104,15.747,15.747
0.149,0.56,-0.863,-11.841,9.033,12.512
0.154,0.623,-0.708,-19.165,-2.625,5.92
0.128,0.659,-0.607,-13.977,-14.648,-1.099
0.08,0.633,-0.617,-2.808,-21.423,-6.287
0.039,0.59,-0.703,12.329,-20.752,-9.644
0.02,0.583,-0.788,22.461,-15.869,-7.812
0.016,0.563,-0.855,23.621,-8.179,-3.967
0.033,0.585,-0.892,22.888,-0.732,-0.854
0.03,0.589,-0.926,19.226,1.892,0.488
-0.001,0.594,-0.943,13.184,-0.854,0.977
-0.038,0.622,-0.942,6.226,-4.517,2.258
-0.075,0.652,-0.942,0,-6.348,3.967
-0.109,0.644,-0.949,-0.854,-4.517,6.653
-0.107,0.637,-0.933,-1.099,1.221,12.329
-0.076,0.642,-0.916,0.122,9.644,19.104
-0.041,0.619,-0.903,5.371,18.433,23.987
0.002,0.576,-0.899,7.69,25.452,27.466
0.051,0.56,-0.891,5.859,28.259,28.625
0.067,0.549,-0.88,5.066,24.658,25.146
0.052,0.537,-0.865,3.601,17.029,20.569
0.027,0.554,-0.848,-0.488,10.071,16.663
-0.001,0.566,-0.844,0.366,6.836,12.512
-0.016,0.557,-0.867,4.7,6.165,8.972
-0.016,0.537,-0.9,5.493,7.141,7.202
-0.002,0.538,-0.915,8.484,8.423,5.31
-0.008,0.544,-0.923,10.437,8.301,3.113
-0.026,0.52,-0.938,10.62,7.874,1.831
-0.036,0.509,-0.933,9.46,8.606,2.625
-0.038,0.516,-0.91,7.263,9.033,4.578
-0.043,0.513,-0.894,5.798,10.925,6.409
-0.04,0.507,-0.881,4.7,15.198,8.118
-0.028,0.5,-0.872,6.47,19.836,9.644
-0.011,0.489,-0.862,9.46,23.01,9.216
0.016,0.491,-0.849,10.986,22.888,6.836
0.022,0.493,-0.842,11.536,17.761,3.418
0.01,0.498,-0.851,8.972,9.277,0.244
-0.01,0.489,-0.87,8.057,0.671,-1.587
-0.03,0.488,-0.885,8.606,-3.906,-1.709
-0.037,0.488,-0.897,8.667,-3.418,-0.305
-0.035,0.48,-0.902,7.263,0.366,2.38
-0.018,0.477,-0.891,5.371,6.348,5.493
0.003,0.477,-0.882,6.104,11.78,7.874
0.016,0.471,-0.875,7.874,15.076,9.216
0.019,0.465,-0.873,9.521,17.883,8.911
0.026,0.466,-0.863,9.583,20.081,7.385
0.025,0.484,-0.856,10.803,19.47,4.761
0.012,0.483,-0.857,9.155,15.93,2.686
0.001,0.481,-0.865,9.766,10.132,1.038
-0.015,0.488,-0.877,6.165,3.662,-0.305
-0.039,0.49,-0.886,5.859,-0.977,-1.465
-0.056,0.491,-0.893,3.723,-2.258,-0.427
-0.059,0.495,-0.895,4.517,0.183,1.526
-0.25,0.533,-0.887,14.221,89.233,39.795
-0.22,0.507,-0.896,9.216,95.398,44.739
-0.189,0.501,-0.875,0.244,89.355,49.133
-0.178,0.509,-0.844,-7.751,77.637,50.659
-0.188,0.524,-0.808,-18.799,66.65,50.659
-0.225,0.546,-0.776,-22.034,59.814,49.194
-0.276,0.559,-0.765,-24.292,58.716,48.706
-0.328,0.573,-0.758,-23.193,64.453,49.622
-0.387,0.572,-0.746,-18.25,77.576,53.955
-0.437,0.614,-0.722,-13.428,99.976,59.937
-0.476,0.638,-0.711,-0.854,129.7,67.383
-0.494,0.623,-0.74,13.367,160.522,79.102
-0.499,0.571,-0.79,30.396,189.209,92.041
-0.5,0.519,-0.832,39.49,216.248,102.478
-0.475,0.516,-0.849,46.875,241.699,108.093
-0.44,0.567,-0.833,54.199,263.184,110.535
-0.414,0.61,-0.82,58.35,276.978,109.863
-0.42,0.634,-0.805,64.575,282.227,106.201
-0.456,0.652,-0.803,72.327,281.25,101.868
-0.511,0.656,-0.815,71.655,276.672,99.609
-0.574,0.656,-0.809,68.909,271.851,99.67
-0.66,0.614,-0.781,62.988,273.132,101.563
-0.763,0.503,-0.722,57.495,280.334,103.027
-0.812,0.459,-0.639,50.11,290.344,104.858
-0.793,0.492,-0.536,42.603,299.072,107.971
-0.773,0.51,-0.439,38.818,302.368,110.168
-0.751,0.525,-0.366,38.696,298.645,109.68
-0.741,0.533,-0.342,41.443,290.161,105.286
-0.763,0.521,-0.343,43.091,279.724,98.206
-0.801,0.521,-0.342,46.021,272.278,92.59
-0.855,0.519,-0.331,47.791,267.883,90.759
-0.928,0.477,-0.317,53.345,264.343,91.37
-0.998,0.414,-0.294,58.105,264.709,95.825
-1.067,0.334,-0.274,64.392,271.667,101.868
-1.109,0.276,-0.25,65.735,285.156,110.352
-1.132,0.275,-0.233,65.125,305.176,122.253
-1.1,0.309,-0.208,65.125,332.214,135.437
-0.985,0.357,-0.162,70.74,365.112,145.081
-0.89,0.357,-0.115,83.557,398.376,150.024
-0.79,0.299,-0.095,96.008,425.415,150.269
-0.687,0.212,-0.068,103.394,443.115,149.414
-0.613,0.089,-0.042,105.53,445.679,147.034
-0.591,-0.093,0.017,96.863,432.983,146.912
-0.559,-0.26,0.107,73.975,403.992,151.794
-0.513,-0.313,0.244,38.818,359.192,160.889
-0.51,-0.284,0.38,5.432,302.673,172.058
-0.535,-0.214,0.521,-22.278,251.038,182.312
-0.545,-0.164,0.619,-38.696,216.614,189.575
-0.503,-0.167,0.664,-42.297,198.486,192.688
-0.427,-0.191,0.689,-40.527,193.604,189.087
-0.326,-0.247,0.698,-33.691,197.021,176.636
-0.219,-0.363,0.698,-22.522,200.5,157.837
-0.182,-0.481,0.693,-13.855,195.862,132.324
-0.248,-0.528,0.681,-12.695,181.824,104.187
-0.369,-0.506,0.649,-14.709,168.274,81.604
-0.469,-0.477,0.631,-15.259,166.504,67.444
-0.498,-0.443,0.656,-19.104,177.673,60.669
-0.463,-0.415,0.719,-26.367,190.186,59.448
-0.405,-0.379,0.794,-32.837,194.336,59.204
-0.347,-0.352,0.851,-36.987,188.477,57.8
-0.291,-0.342,0.923,-40.405,177.917,56.885
-0.23,-0.333,0.977,-41.565,165.71,54.871
-0.172,-0.327,1.007,-42.48,151.245,51.27
-0.12,-0.313,1.02,-40.161,136.536,47.18
-0.094,-0.306,1.021,-35.645,121.826,42.664
-0.09,-0.301,1.027,-35.583,107.422,39.001
-0.093,-0.265,1.05,-38.269,95.642,38.757
-0.078,-0.22,1.072,-36.011,88.257,39.185
-0.066,-0.175,1.08,-36.804,81.665,38.757
-0.046,-0.13,1.109,-37.781,75.745,37.048
-0.023,-0.093,1.148,-39.856,73.547,33.936
0.006,-0.083,1.185,-35.767,74.768,28.198
0.028,-0.103,1.214,-30.701,77.148,20.081
0.04,-0.129,1.23,-19.836,78.308,8.24
0.024,-0.14,1.225,-7.996,76.904,-5.127
-0.01,-0.147,1.189,-1.099,73.975,-17.517
-0.047,-0.144,1.144,5.066,71.96,-27.832
-0.086,-0.122,1.094,9.338,69.275,-33.997
-0.128,-0.108,1.065,8.728,64.026,-34.851
-0.147,-0.095,1.067,5.005,57.312,-30.334
-0.147,-0.083,1.089,1.099,50.476,-22.156
-0.132,-0.073,1.119,-2.197,42.908,-13.184
-0.109,-0.077,1.144,-2.869,35.828,-5.92
-0.084,-0.098,1.155,2.991,29.846,-2.502
-0.066,-0.11,1.143,9.888,24.292,-1.831
-0.061,-0.109,1.11,15.991,18.555,-2.014
-0.057,-0.117,1.073,22.217,13.367,-2.014
-0.057,-0.117,1.036,25.696,9.216,-2.502
-0.076,-0.1,0.995,26.917,6.47,-3.113
-0.098,-0.096,0.956,26.062,5.188,-2.563
-0.11,-0.097,0.937,20.142,6.042,-0.549
-0.109,-0.098,0.942,15.747,8.667,2.38
-0.09,-0.099,0.97,12.207,11.108,4.944
-0.067,-0.1,1,9.277,11.963,6.531
-0.043,-0.102,1.016,7.751,10.559,6.775
-0.025,-0.108,1.022,7.812,7.69,5.554
-0.022,-0.116,1.013,11.169,4.028,2.563
-0.026,-0.117,0.996,15.625,0.854,-0.671
-0.041,-0.111,0.968,17.761,-1.526,-2.808
-0.071,-0.103,0.945,19.226,-2.38,-4.089
-0.117,-0.085,0.922,16.541,-1.282,-3.601
-0.147,-0.077,0.913,14.465,2.808,-1.221
-0.141,-0.085,0.921,14.832,9.216,2.808
-0.117,-0.094,0.94,12.756,14.343,6.958
-0.092,-0.099,0.963,8.667,15.564,10.193
-0.07,-0.11,0.981,8.24,14.526,11.169
-0.051,-0.12,0.992,11.78,11.414,10.437
-0.037,-0.122,0.988,12.39,6.775,9.705
-0.029,-0.123,0.975,12.573,2.625,8.423
-0.033,-0.123,0.958,14.221,-1.587,6.287
-0.045,-0.117,0.94,16.174,-3.967,4.211
-0.057,-0.113,0.93,16.479,-4.639,2.869
-0.068,-0.107,0.919,12.939,-4.028,2.38
-0.078,-0.104,0.913,9.155,-2.197,2.869
-0.079,-0.098,0.922,8.301,1.038,2.869
-0.073,-0.094,0.937,7.446,5.188,2.563
-0.063,-0.095,0.957,4.7,9.277,2.38
-0.049,-0.099,0.978,2.93,12.634,1.892
-0.031,-0.101,0.992,3.662,14.282,1.099
-0.574,-0.432,0.787,21.484,-154.297,-37.659
-0.593,-0.478,0.791,20.264,-148.132,-37.048
-0.616,-0.531,0.796,16.418,-147.705,-37.048
-0.648,-0.587,0.803,12.817,-150.513,-37.842
-0.681,-0.656,0.808,14.709,-152.771,-39.429
-0.702,-0.735,0.813,16.357,-152.527,-43.579
-0.691,-0.821,0.834,18.738,-152.1,-50.232
-0.667,-0.905,0.862,20.996,-156.921,-61.035
-0.641,-0.975,0.887,24.536,-169.006,-77.942
-0.61,-0.987,0.921,26.123,-189.392,-99.731
-0.571,-0.952,0.914,34.546,-218.506,-125.732
-0.539,-0.902,0.834,46.631,-255.615,-154.541
-0.516,-0.834,0.696,57.434,-296.631,-182.922
-0.502,-0.744,0.495,70.007,-338.928,-209.717
-0.574,-0.681,0.206,73.914,-381.775,-228.638
-0.737,-0.62,-0.126,63.599,-420.227,-229.858
-0.898,-0.671,-0.418,41.26,-446.899,-209.412
-0.884,-0.75,-0.574,10.803,-455.811,-177.917
-0.767,-0.828,-0.644,-21.851,-453.674,-153.687
-0.659,-0.849,-0.91,-47.791,-457.275,-143.738
-0.623,-0.951,-0.932,-68.542,-442.993,-135.193
-0.442,-0.894,-1.044,-89.905,-419.739,-138.611
-0.282,-0.803,-1.028,-111.328,-405.334,-152.161
-0.274,-0.666,-0.902,-128.54,-377.991,-163.025
-0.105,-0.516,-0.746,-121.033,-362.61,-180.481
0,-0.312,-0.461,-99.792,-370.85,-201.965
0.016,0.073,-0.553,-64.819,-400.208,-239.075
-0.37,0.264,-0.452,-20.813,-409.119,-266.479
-0.789,0.674,-0.479,18.433,-354.309,-265.991
-1.078,0.953,-0.374,55.359,-267.517,-247.864
-1.349,1.093,-0.318,84.778,-176.697,-219.91
-1.368,1.137,-0.305,96.313,-102.661,-178.284
-1.191,1.047,-0.413,96.619,-50.598,-135.559
-1,0.847,-0.534,79.468,-32.837,-109.863
-0.868,0.777,-0.607,45.166,-50.11,-96.008
-0.855,0.75,-0.657,5.92,-91.309,-86.365
-0.889,0.664,-0.729,-24.17,-135.315,-77.881
-0.901,0.628,-0.725,-50.232,-163.757,-64.453
-0.876,0.656,-0.648,-72.144,-174.805,-45.471
-0.825,0.68,-0.576,-82.092,-171.753,-28.564
-0.735,0.699,-0.518,-82.275,-156.433,-20.386
-0.59,0.687,-0.509,-76.477,-136.475,-21.545
-0.437,0.592,-0.535,-74.585,-126.648,-33.569
-0.364,0.536,-0.514,-80.688,-140.381,-54.382
-0.34,0.597,-0.501,-89.478,-172.119,-71.35
-0.374,0.652,-0.512,-90.027,-209.961,-82.031
-0.471,0.69,-0.556,-79.041,-243.53,-86.853
-0.573,0.72,-0.616,-63.293,-259.644,-85.144
-0.631,0.726,-0.687,-39.673,-251.526,-80.444
-0.66,0.698,-0.76,-13.977,-222.229,-76.416
-0.628,0.628,-0.85,6.165,-178.345,-72.144
-0.549,0.538,-0.945,20.691,-133.423,-69.336
-0.457,0.496,-1.011,24.353,-100.891,-69.641
-0.378,0.536,-1.022,15.625,-83.557,-70.374
-0.338,0.568,-1.008,5.066,-81.299,-68.97
-0.328,0.588,-0.975,-1.77,-86.426,-65.674
-0.311,0.615,-0.947,-8.24,-91.003,-60.669
-0.323,0.617,-0.9,-12.451,-92.346,-56.335
-0.349,0.615,-0.858,-14.038,-92.163,-52.551
-0.373,0.606,-0.829,-13.245,-87.463,-47.424
-0.363,0.58,-0.803,-7.202,-75.5,-43.64
-0.336,0.579,-0.778,2.625,-62.744,-43.579
-0.328,0.589,-0.78,12.695,-55.664,-44.495
-0.332,0.572,-0.818,21.24,-52.063,-43.64
-0.344,0.535,-0.876,26.794,-48.34,-39.673
-0.353,0.504,-0.961,29.968,-42.969,-32.776
-0.335,0.443,-1.054,29.114,-37.048,-22.827
-0.305,0.388,-1.105,20.508,-30.884,-11.047
-0.26,0.378,-1.11,5.249,-25.146,-0.732
-0.214,0.385,-1.07,-7.812,-19.897,6.958
-0.174,0.383,-1.004,-15.198,-14.954,11.658
-0.136,0.392,-0.927,-18.188,-9.155,14.16
-0.112,0.397,-0.856,-16.357,-2.869,15.503
-0.091,0.377,-0.817,-9.644,3.113,15.625
-0.066,0.346,-0.814,-2.258,9.399,15.564
-0.023,0.33,-0.804,2.686,13,13.062
-0.006,0.352,-0.832,6.958,8.728,5.615
-0.032,0.372,-0.865,11.108,-3.113,-1.404
-0.111,0.363,-0.91,14.404,-14.587,-0.671
-0.122,0.378,-0.969,16.846,-24.109,1.221
-0.177,0.375,-0.999,14.832,-25.757,5.127
-0.187,0.369,-1.016,10.01,-20.691,8.606
-0.179,0.362,-1.009,7.08,-10.315,9.583
-0.161,0.349,-0.978,6.714,2.502,9.705
-0.141,0.363,-0.939,6.47,14.526,8.423
-0.103,0.393,-0.908,8.606,21.667,5.005
-0.067,0.414,-0.898,10.925,22.583,0.183
-0.073,0.418,-0.907,10.315,15.015,-5.127
-0.111,0.413,-0.915,10.132,1.953,-7.08
-0.126,0.448,-0.968,8.118,-11.536,-7.202
-0.228,0.417,-0.972,7.019,-14.832,-1.831
-0.211,0.403,-0.988,7.08,-12.024,2.563
-0.229,0.39,-0.981,4.395,-1.892,5.31
-0.22,0.397,-0.949,3.174,12.451,7.629
-0.188,0.406,-0.917,3.113,23.071,7.812
-0.175,0.397,-0.873,4.7,29.297,7.019
-0.155,0.408,-0.834,6.592,30.945,3.54
-0.158,0.412,-0.815,11.108,28.381,-1.099
-0.175,0.41,-0.813,14.709,22.888,-2.747
-0.177,0.402,-0.828,15.259,13.489,-3.479
-0.174,0.387,-0.857,14.221,3.113,-3.418
-0.185,0.369,-0.897,13.306,-7.08,-3.723
-0.205,0.369,-0.936,11.047,-16.357,-3.723
-0.239,0.372,-0.945,6.104,-23.071,-2.625
-0.246,0.394,-0.954,0.916,-26.978,-1.221
-0.279,0.401,-0.945,-1.038,-24.902,1.404
-0.276,0.4,-0.942,-0.366,-17.334,4.456
-0.272,0.395,-0.925,1.221,-5.066,8.118
-0.251,0.388,-0.902,3.967,8.606,11.108
-0.231,0.376,-0.88,7.568,22.339,12.939
-0.207,0.358,-0.864,11.78,33.691,13.733
-0.178,0.334,-0.858,15.686,41.199,13.428
-0.124,0.319,-0.866,17.273,42.908,12.39
-0.084,0.3,-0.875,17.883,36.194,10.803
-0.073,0.293,-0.877,15.93,20.386,8.728
-0.091,0.304,-0.883,10.132,0.305,5.981
-0.14,0.314,-0.884,4.456,-16.357,5.249
-0.161,0.331,-0.889,1.221,-26.917,5.676
-0.18,0.341,-0.898,1.831,-29.358,5.493
-0.549,0.42,-0.754,28.687,101.929,12.39
-0.572,0.413,-0.733,27.771,99.731,12.878
-0.592,0.413,-0.706,25.757,96.802,13.611
-0.602,0.44,-0.681,23.865,93.079,13.916
-0.618,0.451,-0.666,21.606,88.318,13.855
-0.643,0.453,-0.661,20.508,83.069,13.977
-0.666,0.461,-0.661,21.729,77.881,13.794
-0.69,0.462,-0.666,22.766,73.914,14.343
-0.703,0.457,-0.672,23.315,71.472,16.357
-0.705,0.454,-0.671,21.179,70.801,19.592
-0.707,0.434,-0.664,19.714,72.388,22.461
-0.701,0.401,-0.647,17.944,76.05,23.804
-0.685,0.402,-0.622,15.93,80.383,24.292
-0.68,0.412,-0.596,15.625,82.153,23.315
-0.693,0.412,-0.584,16.602,81.543,20.752
-0.711,0.417,-0.579,16.724,78.613,17.639
-0.734,0.425,-0.577,16.235,74.646,15.381
-0.751,0.428,-0.574,15.259,69.946,14.038
-0.765,0.43,-0.566,14.648,64.758,13.672
-0.775,0.429,-0.556,13.428,59.143,14.343
-0.785,0.419,-0.547,12.878,54.199,14.282
-0.808,0.401,-0.533,11.047,50.598,13.367
-0.824,0.398,-0.511,9.033,49.011,12.939
-0.829,0.402,-0.49,9.338,48.34,13.367
-0.829,0.409,-0.478,9.888,47.119,13.977
-0.836,0.422,-0.471,10.986,46.448,13.733
-0.849,0.425,-0.468,12.634,46.326,13.428
-0.854,0.428,-0.465,13.306,46.082,14.709
-0.846,0.442,-0.46,11.963,45.898,17.883
-0.837,0.44,-0.458,10.376,45.959,20.752
-0.832,0.422,-0.452,9.155,46.997,22.888
-0.818,0.403,-0.436,6.836,49.683,24.963
-0.795,0.372,-0.41,5.432,52.856,26.611
-0.772,0.349,-0.382,6.775,55.237,26.55
-0.759,0.35,-0.359,9.949,55.603,24.841
-0.76,0.356,-0.353,14.16,53.833,22.705
-0.768,0.359,-0.365,17.944,50.354,20.63
-0.777,0.365,-0.383,20.691,47.241,19.409
-0.794,0.376,-0.391,21.667,46.082,18.982
-0.811,0.372,-0.392,21.851,46.875,19.592
-0.82,0.369,-0.388,22.156,49.927,21.24
-0.82,0.368,-0.378,21.973,55.359,23.071
-0.823,0.346,-0.359,20.935,62.073,23.499
-0.821,0.319,-0.342,20.752,68.481,22.522
-0.806,0.321,-0.323,24.048,73.12,21.301
-0.794,0.328,-0.323,25.024,73.975,20.386
-0.797,0.321,-0.333,27.893,71.594,16.907
-0.815,0.33,-0.341,27.222,68.237,13.428
-0.837,0.352,-0.347,28.503,65.491,11.292
-0.862,0.372,-0.347,25.513,63.843,11.414
-0.893,0.372,-0.346,24.963,64.88,12.634
-0.915,0.346,-0.339,24.17,70.313,15.015
-0.917,0.292,-0.325,22.461,78.735,17.639
-0.888,0.262,-0.297,22.766,88.379,19.409
-0.846,0.276,-0.265,22.278,94.421,19.653
-0.821,0.296,-0.244,21.545,92.041,17.09
-0.825,0.311,-0.248,21.729,82.275,11.963
-0.856,0.33,-0.251,22.583,69.58,6.348
-0.901,0.36,-0.251,19.958,56.885,3.174
-0.938,0.388,-0.248,13.855,45.715,2.869
-0.969,0.409,-0.241,9.644,37.598,4.883
-0.994,0.426,-0.235,6.714,33.02,8.301
-1.013,0.426,-0.221,2.258,32.41,12.573
-1.031,0.408,-0.215,1.709,35.156,16.602
-1.039,0.396,-0.21,3.601,40.771,20.996
-1.033,0.412,-0.206,4.883,47.791,25.574
-1.035,0.414,-0.208,9.583,57.434,27.954
-1.045,0.404,-0.21,11.414,70.862,28.748
-1.061,0.405,-0.199,15.747,89.233,28.992
-1.065,0.404,-0.177,15.93,111.633,29.968
-1.058,0.405,-0.147,18.921,135.742,31.25
-1.046,0.414,-0.11,24.048,160.217,33.203
-1.03,0.406,-0.074,26.978,182.251,35.889
-1.012,0.382,-0.039,34.424,203.003,37.903
-0.996,0.371,-0.01,42.542,222.656,39.246
-0.991,0.334,0.018,48.645,241.699,40.222
-0.979,0.288,0.04,52.979,259.888,40.71
-0.962,0.287,0.075,59.509,279.114,40.283
-0.96,0.327,0.121,61.157,298.34,40.283
-0.958,0.362,0.163,60.974,317.322,40.466
-0.951,0.379,0.208,65.186,336.487,40.771
-0.924,0.396,0.267,67.2,351.135,44.189
-0.896,0.419,0.334,63.843,357.544,51.392
-0.864,0.438,0.409,62.012,360.229,60.547
-0.809,0.414,0.472,61.768,363.098,69.946
-0.724,0.356,0.531,62.561,364.99,77.026
-0.615,0.277,0.57,70.19,365.845,80.078
-0.51,0.185,0.592,77.881,362.061,79.224
-0.426,0.112,0.614,78.064,347.046,76.111
-0.382,0.09,0.636,72.998,322.327,71.96
-0.376,0.106,0.664,63.843,295.166,68.115
-0.381,0.135,0.707,52.795,272.766,64.88
-0.382,0.161,0.77,46.57,258.545,61.829
-0.375,0.169,0.83,46.387,251.404,57.373
-0.385,0.155,0.869,51.331,248.23,50.293
-0.379,0.079,0.885,60.486,244.629,43.64
-0.383,-0.005,0.892,69.58,237.732,37.17
-0.342,-0.099,0.875,75.012,227.844,32.654
-0.297,-0.167,0.878,75.439,215.21,32.715
-0.253,-0.189,0.883,71.228,196.106,31.86
-0.233,-0.199,0.888,63.538,170.105,30.334
-0.266,-0.171,0.887,54.199,141.724,31.006
-0.301,-0.135,0.898,42.908,118.225,35.645
-0.302,-0.115,0.928,32.959,103.455,43.274
-0.268,-0.123,0.974,26.184,95.093,49.866
-0.223,-0.139,1.022,22.583,89.233,52.246
-0.193,-0.162,1.058,23.254,83.313,49.255
-0.177,-0.179,1.068,28.87,76.05,42.542
-0.179,-0.178,1.055,36.255,68.604,35.828
-0.178,-0.159,1.031,42.297,62.805,31.555
-0.175,-0.131,1.006,44.373,60.669,30.518
-0.164,-0.107,0.989,43.518,61.646,31.616
-0.12,-0.102,0.989,39.429,64.636,34.912
-0.055,-0.126,1.009,33.875,67.566,37.415
-0.005,-0.156,1.025,33.63,65.002,36.987
0.026,-0.189,1.028,34.119,54.871,35.339
0.044,-0.203,1.024,31.616,41.382,32.837
0.023,-0.186,1.001,31.738,28.809,28.564
-0.003,-0.158,0.976,33.691,20.386,25.33
0.062,-0.459,1.181,44.739,-200.928,-57.922
-0.039,-0.41,1.13,54.077,-231.14,-74.646
-0.19,-0.378,1.017,65.063,-258.484,-86.67
-0.286,-0.396,0.904,72.327,-277.161,-87.158
-0.32,-0.466,0.839,70.129,-288.391,-80.261
-0.325,-0.575,0.831,63.477,-299.072,-74.829
-0.305,-0.671,0.865,57.495,-314.697,-75.134
-0.308,-0.719,0.874,55.359,-339.172,-82.52
-0.334,-0.734,0.811,57.129,-371.765,-96.985
-0.368,-0.717,0.679,62.439,-403.748,-114.807
-0.408,-0.672,0.506,66.956,-434.021,-132.751
-0.461,-0.624,0.354,66.467,-457.764,-149.841
-0.54,-0.586,0.235,61.89,-467.102,-165.588
-0.618,-0.548,0.16,55.786,-455.139,-181.091
-0.686,-0.527,0.151,53.04,-421.448,-197.144
-0.7,-0.498,0.158,55.603,-376.16,-214.233
-0.669,-0.438,0.166,63.232,-331.482,-235.229
-0.696,-0.37,0.154,71.899,-299.622,-258.606
-0.748,-0.307,0.08,72.021,-289.124,-274.048
-0.772,-0.231,-0.014,65.613,-294.067,-278.687
-0.787,-0.196,-0.152,57.617,-308.472,-276.611
-0.78,-0.18,-0.308,44.189,-329.712,-271.79
-0.858,-0.151,-0.464,25.269,-354.858,-265.076
-0.984,-0.123,-0.624,4.578,-378.418,-251.648
-1.026,-0.066,-0.765,-14.404,-391.235,-231.201
-1,-0.056,-0.871,-28.87,-386.536,-212.28
-0.931,-0.024,-0.962,-39.307,-369.629,-201.538
-0.851,0.022,-1.031,-48.035,-344.604,-197.754
-0.753,0.038,-1.112,-50.293,-313.477,-197.754
-0.717,0.056,-1.162,-51.514,-284.302,-198.059
-0.699,0.075,-1.177,-58.655,-262.573,-192.261
-0.6,0.133,-1.143,-70.923,-251.892,-179.321
-0.471,0.27,-1.047,-85.754,-251.465,-165.222
-0.394,0.434,-0.948,-94.971,-256.836,-154.358
-0.36,0.552,-0.881,-95.886,-259.949,-144.836
-0.328,0.655,-0.817,-91.431,-254.944,-137.085
-0.258,0.74,-0.777,-81.055,-239.868,-132.08
-0.131,0.765,-0.797,-65.857,-217.59,-131.592
-0.023,0.74,-0.884,-55.847,-195.618,-137.695
0.031,0.755,-0.901,-62.256,-187.256,-142.639
0.098,0.845,-0.902,-79.895,-202.209,-142.456
0.101,0.927,-0.9,-96.069,-232.117,-138.306
0.092,0.997,-0.872,-105.896,-259.277,-132.874
0.096,1.105,-0.818,-105.652,-270.325,-129.272
0.048,1.12,-0.704,-85.022,-253.174,-129.517
-0.046,1.058,-0.659,-52.124,-205.017,-133.423
-0.1,1.009,-0.681,-15.015,-148.01,-134.216
-0.069,0.881,-0.823,17.456,-96.069,-130.432
-0.001,0.781,-0.945,27.893,-61.89,-125.427
0.016,0.754,-1.018,13.977,-51.636,-122.131
-0.051,0.77,-0.998,-7.263,-59.57,-123.413
-0.18,0.87,-0.879,-29.846,-77.881,-124.268
-0.4,0.937,-0.751,-44.678,-98.145,-122.253
-0.669,0.927,-0.675,-42.114,-111.328,-114.807
-0.878,0.95,-0.676,-33.752,-110.474,-95.337
-0.876,0.871,-0.812,-19.958,-93.506,-62.012
-0.703,0.652,-1.045,-5.31,-64.331,-17.7
-0.373,0.478,-1.237,-2.686,-29.968,22.766
-0.042,0.346,-1.298,-10.071,1.587,48.035
0.216,0.244,-1.228,-24.292,23.376,56.396
0.368,0.241,-1.005,-43.274,32.654,50.964
0.422,0.312,-0.705,-56.458,28.809,35.522
0.379,0.363,-0.466,-49.377,16.479,14.648
0.286,0.406,-0.378,-27.771,2.625,-5.249
0.185,0.422,-0.454,-0.061,-8.484,-21.545
0.069,0.438,-0.632,22.827,-18.372,-34.485
-0.09,0.44,-0.849,38.452,-27.832,-42.664
-0.235,0.434,-1.045,44.128,-32.104,-40.283
-0.304,0.44,-1.162,37.781,-27.344,-28.381
-0.305,0.434,-1.182,24.597,-14.526,-12.756
-0.244,0.44,-1.12,10.864,2.869,2.441
-0.137,0.451,-1.025,1.16,19.653,14.099
-0.039,0.444,-0.896,-1.16,30.762,19.104
0.029,0.445,-0.785,2.869,33.264,17.7
0.052,0.412,-0.742,9.338,28.381,12.146
0.032,0.394,-0.775,17.273,19.836,5.066
-0.018,0.389,-0.855,26.001,11.536,-1.587
-0.076,0.387,-0.949,28.442,5.188,-4.333
-0.105,0.375,-1.03,29.358,2.075,-3.845
-0.123,0.385,-1.074,24.719,1.465,-1.526
-0.135,0.4,-1.086,15.808,-0.061,2.075
-0.143,0.408,-1.074,8.85,-0.916,5.127
-0.138,0.42,-1.04,5.737,1.953,8.118
-0.131,0.415,-0.993,1.831,8.118,11.169
-0.108,0.415,-0.949,1.831,15.808,12.573
-0.086,0.416,-0.916,7.385,23.193,12.268
-0.076,0.393,-0.903,9.583,26.367,10.62
-0.067,0.366,-0.898,9.888,25.513,9.644
-0.061,0.363,-0.905,10.01,21.79,9.399
-0.066,0.357,-0.918,11.169,16.296,8.606
-0.082,0.363,-0.923,8.606,10.437,8.545
-0.094,0.359,-0.931,5.249,5.92,9.033
-0.097,0.354,-0.939,6.165,3.052,9.277
-0.094,0.359,-0.943,6.287,2.319,9.277
-0.086,0.353,-0.936,6.042,3.845,9.033
-0.077,0.349,-0.924,7.629,7.568,8.85
-0.067,0.346,-0.912,9.766,12.329,8.057
-0.065,0.337,-0.906,11.169,16.479,7.141
-0.069,0.334,-0.909,13.489,19.287,6.042
-0.069,0.342,-0.919,16.785,21.301,5.249
-0.075,0.341,-0.936,18.311,21.973,4.089
-0.075,0.339,-0.948,16.724,19.836,2.991
-0.076,0.344,-0.944,12.085,15.381,2.258
-0.088,0.354,-0.924,8.85,9.216,1.221
-0.111,0.358,-0.911,7.629,3.418,0.488
-0.117,0.359,-0.911,8.118,0.183,1.038
-0.11,0.359,-0.916,10.254,0.61,1.953
-0.104,0.355,-0.917,13.184,4.333,1.831
-0.108,0.355,-0.924,14.282,8.301,1.709
-0.103,0.348,-0.936,16.235,11.292,2.136
-0.096,0.351,-0.945,18.372,12.451,2.258
-0.095,0.356,-0.958,18.188,11.353,1.892
-0.105,0.354,-0.969,13.794,8.24,1.892
-0.109,0.361,-0.973,11.23,5.005,2.319
-0.115,0.358,-0.976,9.766,3.296,2.93
-0.114,0.362,-0.972,9.094,4.15,3.479
-0.103,0.364,-0.954,8.179,7.019,4.089
-0.095,0.363,-0.938,9.277,10.62,3.784
-0.082,0.36,-0.928,10.681,13.367,2.93
-0.423,0.411,-0.923,-4.211,-16.113,10.01
-0.449,0.414,-0.916,-6.165,-13.733,12.878
-0.454,0.408,-0.902,-6.653,-7.141,16.846
-0.436,0.394,-0.887,-6.653,0.549,20.752
-0.408,0.374,-0.87,-6.836,7.568,24.475
-0.371,0.362,-0.862,-4.578,11.047,26.001
-0.339,0.346,-0.869,-1.831,11.353,25.452
-0.322,0.331,-0.885,-1.465,8.24,23.437
-0.32,0.323,-0.9,-1.77,3.662,20.508
-0.333,0.326,-0.903,-2.625,-0.854,17.517
-0.357,0.339,-0.896,-3.54,-3.662,15.442
-0.38,0.343,-0.887,-2.258,-3.601,14.893
-0.41,0.335,-0.88,-0.671,0.366,16.174
-0.425,0.32,-0.873,1.892,7.69,18.982
-0.405,0.317,-0.867,3.601,16.235,22.644
-0.377,0.312,-0.861,6.165,23.437,24.475
-0.35,0.308,-0.87,8.484,27.344,24.231
-0.332,0.302,-0.881,8.057,26.489,22.522
-0.328,0.301,-0.888,8.179,21.301,19.104
-0.345,0.307,-0.884,6.165,13.367,16.479
-0.375,0.31,-0.879,2.258,5.066,15.198
-0.407,0.309,-0.873,-0.671,-0.183,15.076
-0.434,0.31,-0.869,-1.038,-1.16,16.113
-0.447,0.306,-0.871,-0.122,1.77,19.043
-0.438,0.298,-0.878,1.648,7.141,22.4
-0.412,0.294,-0.886,2.93,12.512,24.902
-0.386,0.291,-0.89,3.784,15.93,25.635
-0.372,0.287,-0.891,5.981,17.578,24.414
-0.369,0.278,-0.892,6.775,17.212,22.095
-0.375,0.274,-0.893,6.47,15.686,19.531
-0.386,0.271,-0.894,5.371,13.55,17.273
-0.403,0.268,-0.89,3.784,12.146,15.686
-0.419,0.274,-0.883,1.526,11.169,15.32
-0.434,0.279,-0.879,0.671,10.864,15.93
-0.443,0.28,-0.881,2.258,12.268,17.212
-0.443,0.28,-0.881,4.333,15.259,18.799
-0.434,0.273,-0.877,4.15,18.86,20.508
-0.417,0.266,-0.871,3.296,21.79,21.729
-0.403,0.247,-0.868,2.93,23.437,21.606
-0.39,0.229,-0.867,3.906,23.682,20.081
-0.378,0.228,-0.867,4.639,23.01,17.7
-0.379,0.23,-0.864,4.822,20.813,14.709
-0.401,0.236,-0.856,5.005,17.578,11.902
-0.424,0.247,-0.849,7.324,14.404,10.437
-0.445,0.262,-0.849,8.911,12.634,11.23
-0.454,0.266,-0.853,9.46,13.123,13.428
-0.455,0.258,-0.858,9.155,15.564,15.747
-0.45,0.244,-0.864,8.118,19.287,17.334
-0.441,0.222,-0.867,8.423,22.705,18.005
-0.426,0.21,-0.863,9.399,23.865,17.883
-0.415,0.213,-0.854,8.728,22.888,16.785
-0.414,0.215,-0.843,6.958,20.325,14.893
-0.416,0.226,-0.834,5.615,17.761,12.634
-0.436,0.24,-0.837,9.094,16.724,10.254
-0.451,0.255,-0.85,11.414,17.578,9.46
-0.465,0.261,-0.864,11.108,20.752,9.583
-0.48,0.263,-0.868,12.817,25.94,10.01
-0.491,0.259,-0.865,14.465,32.043,11.169
-0.49,0.239,-0.864,13.428,37.354,13.123
-0.484,0.216,-0.855,10.742,40.039,14.832
-0.473,0.206,-0.839,10.559,39.429,15.137
-0.468,0.194,-0.827,9.277,36.072,14.709
-0.465,0.206,-0.822,7.629,30.64,13.733
-0.477,0.205,-0.824,6.531,25.269,12.817
-0.482,0.218,-0.831,5.981,22.766,12.146
-0.486,0.231,-0.838,7.08,23.926,11.597
-0.493,0.24,-0.85,10.437,27.649,10.559
-0.499,0.236,-0.859,13.794,33.508,9.583
-0.513,0.208,-0.86,15.686,40.649,8.606
-0.522,0.183,-0.853,17.273,47.119,7.446
-0.522,0.173,-0.836,16.846,50.293,6.836
-0.518,0.162,-0.819,14.832,48.34,6.958
-0.515,0.163,-0.805,10.559,40.894,7.324
-0.514,0.172,-0.8,7.324,30.884,7.263
-0.515,0.19,-0.802,4.944,21.729,6.775
-0.525,0.211,-0.811,5.066,16.052,5.249
-0.539,0.221,-0.827,6.287,15.137,2.808
-0.553,0.228,-0.837,8.179,18.494,0.977
-0.56,0.23,-0.848,10.315,24.902,-0.183
-0.574,0.225,-0.86,12.695,32.288,-1.587
-0.594,0.211,-0.863,14.038,39.795,-2.502
-0.599,0.2,-0.864,14.099,46.753,-2.686
-0.599,0.2,-0.854,11.658,49.988,-2.258
-0.594,0.206,-0.84,7.263,48.096,-0.549
-0.587,0.212,-0.832,5.737,43.518,1.648
-0.583,0.217,-0.832,4.028,39.978,2.808
-0.581,0.226,-0.828,0.977,38.94,2.747
-0.587,0.225,-0.822,2.075,41.626,1.587
-0.606,0.207,-0.813,5.249,47.791,-0.427
-0.629,0.191,-0.797,8.911,56.702,-2.014
-0.637,0.191,-0.776,11.841,67.505,-2.686
-0.627,0.196,-0.76,14.587,77.454,-3.113
-0.615,0.202,-0.746,14.709,82.642,-3.357
-0.612,0.218,-0.736,11.047,81.604,-3.662
-0.62,0.229,-0.73,7.019,76.172,-3.662
-0.641,0.228,-0.719,4.822,69.885,-3.723
-0.664,0.225,-0.708,3.784,65.247,-3.601
-0.688,0.218,-0.705,1.77,63.049,-2.625
-0.702,0.211,-0.698,0.061,64.636,-1.404
-0.71,0.211,-0.685,1.099,69.702,-0.549
-0.72,0.219,-0.665,5.493,77.393,-0.305
-0.726,0.231,-0.651,9.705,86.304,0.244
-0.719,0.247,-0.641,12.878,95.764,0.916
-0.703,0.238,-0.648,17.334,105.652,0.366
-0.701,0.207,-0.656,20.569,112.305,-1.038
-0.715,0.188,-0.649,20.752,114.258,-2.319
-0.741,0.187,-0.629,15.686,112.671,-2.747
-0.775,0.189,-0.598,11.963,110.352,-2.502
-0.797,0.202,-0.564,9.583,109.07,-1.709
-0.797,0.217,-0.531,5.92,108.215,-0.122
-0.793,0.234,-0.504,4.883,106.14,0.61
-0.786,0.251,-0.478,5.371,103.027,0.122
-0.795,0.267,-0.461,7.996,99.976,-1.404
-0.815,0.279,-0.456,11.108,97.778,-3.601
-0.847,0.288,-0.449,14.526,98.511,-6.287
-0.887,0.286,-0.436,18.555,103.394,-8.423
-0.917,0.281,-0.424,22.644,111.694,-9.155
-0.915,0.28,-0.408,24.658,119.507,-8.057
-0.898,0.282,-0.391,21.912,121.704,-5.615
-0.137,-0.523,1.103,52.734,-153.625,21.179
-0.126,-0.596,1.11,56.335,-164.673,20.813
-0.096,-0.673,1.112,60.12,-176.758,15.93
-0.11,-0.762,1.095,67.871,-192.261,5.981
-0.167,-0.811,1.035,73.73,-209.778,-8.484
-0.29,-0.856,0.932,78.735,-225.159,-24.719
-0.372,-0.918,0.84,85.51,-232.544,-37.537
-0.409,-0.979,0.742,88.196,-240.54,-50.171
-0.419,-1.014,0.68,84.9,-251.831,-64.148
-0.44,-0.999,0.634,81.726,-273.499,-79.956
-0.565,-0.835,0.571,74.951,-299.133,-93.994
-0.857,-0.638,0.412,71.838,-311.523,-98.572
-0.98,-0.595,0.254,68.665,-298.767,-81.055
-0.904,-0.661,0.235,53.711,-274.597,-49.438
-0.747,-0.765,0.284,30.945,-261.902,-23.865
-0.637,-0.864,0.374,10.925,-265.381,-15.686
-0.539,-0.902,0.442,0.061,-276.855,-20.752
-0.448,-0.936,0.427,1.465,-292.114,-35.645
-0.356,-0.983,0.343,7.263,-314.392,-57.312
-0.32,-0.988,0.251,8.911,-342.651,-85.083
-0.341,-0.902,0.149,6.47,-366.028,-117.981
-0.404,-0.789,0.062,6.348,-366.15,-155.457
-0.484,-0.681,0.027,8.85,-343.628,-192.871
-0.452,-0.579,0.002,11.902,-311.096,-223.572
-0.359,-0.594,-0.052,13.489,-284.668,-250.793
-0.243,-0.586,-0.097,4.7,-288.269,-275.452
-0.134,-0.503,-0.197,-11.902,-329.834,-298.34
-0.117,-0.407,-0.358,-28.198,-391.541,-322.937
-0.274,-0.19,-0.574,-42.969,-451.538,-344.604
-0.775,0.086,-0.808,-58.838,-490.479,-347.168
-1.279,0.249,-1.051,-75.317,-487.366,-309.326
-1.444,0.269,-1.205,-90.698,-436.34,-239.38
-1.236,0.239,-1.196,-110.718,-367.004,-164.185
-0.863,0.323,-1.062,-134.338,-319.946,-104.309
-0.489,0.411,-0.86,-151.062,-315.918,-68.42
-0.205,0.486,-0.691,-151.367,-345.337,-57.922
0.016,0.568,-0.601,-135.437,-384.949,-68.909
0.146,0.639,-0.589,-107.666,-415.222,-94.055
0.159,0.723,-0.64,-75.073,-427.49,-127.136
0.009,0.895,-0.739,-44.25,-414.917,-162.476
-0.247,0.979,-0.871,-13.855,-377.625,-184.204
-0.314,0.962,-1.028,15.076,-325.806,-181.946
-0.219,0.941,-1.128,31.921,-277.832,-166.382
-0.111,0.926,-1.176,38.635,-247.009,-150.879
-0.087,0.919,-1.116,41.26,-230.469,-140.991
0.002,0.906,-1.139,45.776,-210.022,-134.949
-0.005,0.823,-0.998,55.237,-178.162,-132.568
0.009,0.716,-1.049,64.148,-155.212,-134.888
-0.041,0.552,-1.098,59.448,-146.24,-133.606
-0.061,0.532,-1.105,40.833,-148.499,-126.526
-0.141,0.581,-1.071,20.447,-151.672,-113.159
-0.235,0.601,-1.045,12.329,-151.001,-93.201
-0.303,0.608,-1.031,13.794,-138.794,-69.885
-0.339,0.604,-0.991,18.982,-111.45,-49.133
-0.315,0.606,-0.912,25.696,-71.594,-34.119
-0.274,0.549,-0.874,35.034,-29.053,-27.771
-0.211,0.495,-0.844,42.542,6.409,-28.748
-0.134,0.486,-0.823,44.495,22.461,-31.006
-0.086,0.452,-0.871,41.626,9.033,-28.259
-0.059,0.442,-0.948,29.541,-24.963,-21.851
-0.071,0.425,-1.002,11.292,-62.622,-14.282
-0.096,0.424,-1.012,-5.493,-84.839,-6.348
-0.102,0.454,-0.963,-14.893,-82.397,-0.244
-0.075,0.449,-0.881,-13.123,-58.411,5.188
0.007,0.425,-0.797,-2.197,-23.254,8.667
0.123,0.391,-0.751,12.085,6.592,7.019
0.205,0.377,-0.733,25.085,18.066,-0.793
0.197,0.372,-0.785,34.18,7.874,-11.536
0.112,0.383,-0.89,35.767,-14.832,-20.203
0.01,0.411,-0.993,28.992,-40.894,-23.071
-0.074,0.447,-1.068,18.494,-58.716,-20.569
-0.136,0.495,-1.098,10.315,-60.608,-15.198
-0.178,0.544,-1.067,6.287,-45.959,-9.399
-0.186,0.573,-0.97,7.874,-22.4,-1.648
-0.145,0.602,-0.861,13.733,3.662,7.385
-0.098,0.618,-0.797,25.024,25.818,13.367
-0.084,0.569,-0.803,38.208,41.138,15.198
-0.072,0.485,-0.858,46.692,51.208,15.991
-0.026,0.432,-0.932,46.997,51.575,16.541
0.007,0.384,-0.987,39.917,38.025,15.93
0.029,0.372,-1,27.954,16.418,14.282
0.027,0.379,-0.998,15.991,-4.272,12.878
0.014,0.389,-0.991,7.324,-18.188,11.292
0.01,0.402,-0.975,1.831,-20.569,8.911
0.006,0.432,-0.931,-0.488,-13.306,5.066
-0.01,0.439,-0.893,2.869,-2.441,0.366
-0.023,0.437,-0.862,8.362,7.629,-2.502
-0.039,0.437,-0.846,13.428,14.16,-4.517
-0.059,0.426,-0.85,17.639,16.296,-4.639
-0.057,0.423,-0.879,20.935,14.465,-2.625
-0.046,0.414,-0.918,19.47,10.315,-1.282
-0.059,0.407,-0.952,17.212,4.761,-1.404
-0.066,0.419,-0.965,12.634,-1.526,-1.282
-0.079,0.429,-0.949,7.08,-5.676,-0.061
-0.093,0.443,-0.919,3.784,-6.958,0.061
-0.102,0.439,-0.898,4.7,-5.554,1.16
-0.095,0.438,-0.891,5.615,-2.686,3.723
-0.082,0.428,-0.891,6.287,1.526,5.737
-0.062,0.421,-0.896,8.057,6.287,6.958
-0.053,0.419,-0.898,12.939,9.705,7.385
-0.053,0.417,-0.906,14.832,12.207,7.935
-0.047,0.416,-0.909,14.282,14.16,8.301
-0.029,0.415,-0.91,11.78,13.611,9.277
-0.016,0.405,-0.904,9.216,10.559,8.728
-0.015,0.412,-0.891,6.958,5.798,6.836
-0.027,0.423,-0.877,5.249,-0.183,5.493
-0.049,0.423,-0.872,5.798,-3.662,4.517
-0.068,0.429,-0.874,8.911,-2.441,4.272
-0.07,0.43,-0.881,12.329,2.563,5.127
-0.062,0.426,-0.902,16.541,9.827,6.958
-0.056,0.425,-0.918,18.921,16.663,8.484
-0.051,0.426,-0.926,19.897,21.667,9.766
-0.049,0.43,-0.93,20.142,25.208,10.315
-0.037,0.428,-0.933,18.066,27.283,10.254
-0.03,0.428,-0.928,13.611,26.062,9.949
-0.026,0.423,-0.919,11.597,20.142,9.644
-0.024,0.412,-0.922,10.62,12.39,9.705
-0.028,0.417,-0.925,8.118,6.653,9.521
-0.043,0.424,-0.924,7.629,4.456,8.972
-0.473,0.403,-0.84,23.804,41.687,13.489
-0.476,0.382,-0.819,27.771,53.345,16.602
-0.453,0.361,-0.804,31.616,64.636,18.616
-0.422,0.356,-0.792,34.607,70.374,18.433
-0.402,0.354,-0.789,37.17,68.115,16.357
-0.4,0.356,-0.806,37.537,60.791,12.634
-0.426,0.37,-0.825,34.912,52.307,7.996
-0.455,0.399,-0.836,32.043,44.434,3.662
-0.497,0.425,-0.842,28.564,40.833,1.465
-0.547,0.455,-0.84,26.672,41.504,0.916
-0.586,0.48,-0.826,26.123,46.692,2.075
-0.617,0.49,-0.805,25.635,55.481,6.47
-0.618,0.474,-0.781,28.748,66.345,11.902
-0.603,0.456,-0.76,33.813,78.064,16.663
-0.567,0.435,-0.748,38.208,88.196,19.897
-0.532,0.417,-0.742,44.189,94.91,20.63
-0.504,0.416,-0.74,46.387,96.802,18.982
-0.491,0.429,-0.741,45.288,94.727,15.869
-0.498,0.441,-0.747,42.603,90.332,11.414
-0.525,0.455,-0.754,38.635,84.961,7.202
-0.566,0.467,-0.755,33.997,79.773,5.554
-0.608,0.479,-0.747,30.212,76.416,6.958
-0.654,0.456,-0.726,26.001,75.745,11.963
-0.673,0.42,-0.688,21.729,78.003,18.311
-0.66,0.405,-0.643,17.7,81.421,23.926
-0.628,0.41,-0.6,17.883,83.801,26.733
-0.602,0.419,-0.574,22.278,84.412,25.696
-0.595,0.426,-0.57,24.902,82.275,21.851
-0.616,0.442,-0.582,32.471,79.346,15.503
-0.66,0.458,-0.604,37.109,76.843,10.01
-0.7,0.477,-0.636,39.063,75.867,7.568
-0.737,0.49,-0.658,38.269,76.904,8.362
-0.769,0.487,-0.667,35.217,80.322,11.23
-0.789,0.461,-0.656,30.212,85.51,15.564
-0.797,0.443,-0.631,27.344,92.224,19.836
-0.779,0.437,-0.594,25.574,98.755,23.621
-0.751,0.428,-0.555,22.766,102.722,26.489
-0.719,0.424,-0.521,21.24,103.76,27.527
-0.697,0.423,-0.497,24.475,103.027,25.574
-0.697,0.429,-0.483,24.292,99.915,21.912
-0.721,0.434,-0.484,23.743,95.154,17.578
-0.748,0.44,-0.481,24.78,90.881,15.076
-0.77,0.451,-0.484,24.414,88.074,15.32
-0.791,0.449,-0.48,21.301,86.792,16.968
-0.809,0.432,-0.466,15.869,87.585,19.348
-0.818,0.414,-0.436,14.526,91.187,21.362
-0.816,0.397,-0.396,13.367,96.008,23.254
-0.798,0.387,-0.349,11.292,99.243,24.292
-0.771,0.383,-0.311,14.648,99.731,23.376
-0.75,0.384,-0.286,17.395,96.436,21.24
-0.747,0.394,-0.286,22.644,90.332,17.456
-0.769,0.407,-0.304,23.926,82.581,13.184
-0.797,0.42,-0.324,23.376,75.928,9.583
-0.829,0.436,-0.338,24.353,72.449,7.629
-0.871,0.437,-0.345,22.461,71.838,7.935
-0.894,0.437,-0.348,17.761,73.914,10.62
-0.915,0.417,-0.34,15.198,78.003,14.282
-0.919,0.392,-0.319,15.93,83.862,16.907
-0.899,0.39,-0.28,14.343,90.82,19.714
-0.865,0.386,-0.234,11.841,96.313,21.545
-0.837,0.38,-0.202,14.832,98.45,20.996
-0.821,0.389,-0.177,14.832,97.351,19.043
-0.818,0.391,-0.167,14.648,93.994,16.052
-0.834,0.4,-0.16,17.334,90.088,12.939
-0.846,0.414,-0.154,17.883,87.646,11.597
-0.87,0.414,-0.159,19.592,85.876,11.23
-0.901,0.401,-0.17,21.484,85.693,11.963
-0.921,0.378,-0.173,19.958,87.646,13.672
-0.923,0.363,-0.168,20.081,92.529,15.564
-0.919,0.352,-0.15,21.973,99.548,17.09
-0.904,0.348,-0.122,21.973,105.347,18.25
-0.896,0.35,-0.092,25.818,109.619,18.188
-0.896,0.353,-0.068,25.696,111.877,18.372
-0.901,0.365,-0.049,27.161,112.427,18.494
-0.915,0.39,-0.024,28.198,113.647,19.104
-0.938,0.405,0.007,30.945,117.188,20.386
-0.959,0.409,0.047,30.945,121.948,23.621
-0.974,0.398,0.082,36.438,128.723,27.222
-0.978,0.382,0.104,46.265,139.343,29.541
-0.975,0.359,0.117,55.42,151.672,30.64
-0.964,0.341,0.125,61.401,163.208,30.884
-0.947,0.327,0.131,67.688,172.791,29.48
-0.935,0.312,0.149,74.463,179.81,27.588
-0.927,0.303,0.169,74.951,181.824,26.367
-0.931,0.3,0.186,76.294,179.932,25.635
-0.937,0.313,0.212,73.73,177.002,27.1
-0.926,0.325,0.246,69.58,174.805,30.212
-0.919,0.317,0.283,70.129,174.683,33.508
-0.899,0.289,0.31,71.716,175.781,37.109
-0.873,0.259,0.325,68.97,177.063,39.551
-0.854,0.225,0.345,66.528,178.162,38.94
-0.834,0.211,0.378,65.857,178.711,36.926
-0.815,0.195,0.42,62.256,177.734,35.645
-0.804,0.178,0.456,60.181,173.706,34.607
-0.808,0.183,0.485,60.12,168.213,34.79
-0.812,0.19,0.513,55.603,164.124,36.987
-0.79,0.194,0.579,53.772,163.208,39.612
-0.766,0.202,0.627,55.603,163.574,42.419
-0.715,0.186,0.612,54.199,162.598,44.25
-0.672,0.167,0.599,54.871,164.429,43.213
-0.636,0.149,0.631,51.147,166.87,40.955
-0.603,0.134,0.662,50.476,167.053,39.49
-0.557,0.109,0.684,48.645,164.429,37.537
-0.534,0.089,0.712,50.72,159.485,33.936
-0.525,0.089,0.732,48.584,152.283,29.785
-0.536,0.085,0.742,48.34,145.142,25.208
-0.554,0.087,0.75,46.997,139.16,22.827
-0.56,0.092,0.766,42.236,133.484,23.01
-0.563,0.094,0.783,40.283,129.028,24.963
-0.561,0.095,0.804,34.729,123.657,29.236
-0.551,0.098,0.853,33.203,117.92,34.607
-0.529,0.087,0.888,31.982,110.657,40.039
-0.51,0.08,0.905,36.682,104.065,43.823
-0.502,0.083,0.908,38.879,100.769,46.448
-0.486,0.073,0.914,44.495,102.234,47.791
-0.428,0.061,0.964,45.288,105.774,49.377
-0.387,0.034,0.954,45.837,103.027,49.377
-0.363,0.009,0.91,46.509,94.482,45.776
-0.375,0,0.88,43.335,85.999,40.466
0.033,-0.725,1.008,75.745,-224.243,43.396
0.036,-0.771,0.937,81.787,-251.77,37.109
0.027,-0.791,0.849,85.144,-275.696,27.039
0,-0.794,0.763,86.731,-293.274,12.207
-0.047,-0.793,0.691,86.426,-300.354,-8.118
-0.097,-0.783,0.622,87.341,-297.791,-32.776
-0.098,-0.759,0.577,86.731,-290.344,-56.824
-0.09,-0.73,0.555,80.933,-285.706,-77.454
-0.079,-0.716,0.531,73.303,-292.48,-94.849
-0.073,-0.693,0.491,64.087,-312.439,-108.337
-0.096,-0.632,0.457,50.598,-344.543,-116.76
-0.148,-0.588,0.432,37.231,-382.935,-123.352
-0.217,-0.524,0.392,27.832,-416.443,-132.812
-0.352,-0.406,0.324,23.804,-435.73,-146.362
-0.507,-0.324,0.231,25.085,-442.139,-156.189
-0.607,-0.268,0.141,26.672,-439.941,-155.579
-0.622,-0.211,0.067,26.978,-434.57,-151.672
-0.549,-0.145,0.012,28.076,-429.138,-154.358
-0.435,-0.107,-0.023,32.593,-428.589,-168.396
-0.339,-0.09,-0.116,34.18,-438.782,-191.467
-0.329,-0.004,-0.222,32.41,-460.327,-215.881
-0.4,0.212,-0.307,26.367,-485.107,-238.037
-0.709,0.457,-0.405,22.095,-502.991,-251.526
-1.098,0.568,-0.588,24.597,-507.08,-237.183
-1.276,0.585,-0.679,20.203,-493.652,-193.787
-1.195,0.586,-0.685,14.709,-463.074,-140.137
-1,0.566,-0.683,13.306,-434.265,-99.487
-0.784,0.511,-0.703,17.7,-412.17,-82.275
-0.628,0.415,-0.749,28.87,-393.188,-88.074
-0.486,0.331,-0.817,36.072,-377.686,-106.812
-0.421,0.341,-0.844,31.555,-360.779,-129.639
-0.405,0.41,-0.792,31.311,-333.801,-153.503
-0.327,0.528,-0.678,37.17,-312.988,-174.988
-0.312,0.709,-0.659,51.941,-306.396,-190.735
-0.453,0.81,-0.728,76.05,-306.58,-197.693
-0.531,0.782,-0.851,94.727,-305.481,-186.157
-0.483,0.738,-0.969,101.624,-295.776,-164.124
-0.375,0.663,-1.066,101.257,-279.297,-147.156
-0.241,0.549,-1.173,90.454,-266.785,-141.113
-0.098,0.494,-1.274,68.115,-266.418,-141.907
-0.05,0.488,-1.275,41.809,-277.039,-145.813
-0.079,0.521,-1.189,18.799,-282.104,-148.01
-0.111,0.558,-1.083,10.986,-265.137,-147.705
-0.119,0.573,-0.967,21.606,-223.877,-144.348
-0.134,0.577,-0.879,41.016,-168.762,-136.597
-0.085,0.504,-0.854,60.608,-109.619,-124.573
0.003,0.46,-0.828,76.111,-58.96,-111.755
0.129,0.461,-0.823,82.275,-36.621,-101.868
0.238,0.464,-0.892,77.209,-46.021,-98.938
0.262,0.496,-0.967,64.209,-74.951,-106.506
0.139,0.539,-1.039,47.302,-108.521,-120.056
-0.041,0.598,-1.062,30.518,-129.395,-127.869
-0.194,0.66,-1.028,19.897,-129.944,-127.502
-0.304,0.657,-0.989,16.785,-112.732,-119.751
-0.339,0.627,-0.946,17.7,-83.496,-96.558
-0.271,0.58,-0.919,21.851,-45.654,-63.538
-0.072,0.528,-0.923,30.151,-7.874,-35.034
0.129,0.46,-0.942,37.659,19.043,-18.555
0.304,0.414,-0.948,37.964,30.945,-13.855
0.36,0.388,-0.941,32.41,25.574,-16.907
0.331,0.395,-0.92,21.667,7.874,-25.269
0.256,0.428,-0.875,9.155,-9.521,-34.18
0.175,0.484,-0.824,1.038,-21.362,-38.574
0.116,0.519,-0.797,-0.549,-26.611,-38.147
0.024,0.547,-0.782,2.686,-26.306,-31.311
0.01,0.579,-0.804,11.475,-18.616,-26.611
-0.012,0.574,-0.843,22.156,-4.944,-20.081
0.011,0.557,-0.886,29.602,11.292,-12.268
0.041,0.558,-0.911,33.02,25.94,-5.31
0.09,0.529,-0.934,32.898,32.593,-1.526
0.115,0.504,-0.954,28.687,30.029,0.305
0.131,0.495,-0.95,19.409,22.339,1.892
0.137,0.505,-0.933,12.756,11.597,2.808
0.125,0.502,-0.913,8.057,2.563,2.808
0.102,0.494,-0.894,2.991,-0.061,2.38
0.121,0.507,-0.89,0.488,3.479,0.366
0.1,0.513,-0.884,1.709,7.385,-0.732
0.097,0.519,-0.878,4.333,9.766,-2.075
0.084,0.514,-0.879,7.446,10.742,-2.625
0.082,0.515,-0.898,7.019,11.047,-2.136
0.079,0.505,-0.912,8.484,11.353,-1.709
0.063,0.506,-0.914,8.484,11.963,-0.977
0.037,0.514,-0.911,4.15,11.597,0.854
0.021,0.506,-0.902,4.028,11.536,3.54
0.024,0.511,-0.892,3.479,12.634,6.653
0.035,0.507,-0.892,1.16,13.306,8.789
0.043,0.495,-0.905,-1.038,12.207,10.132
0.053,0.482,-0.912,-1.831,10.742,11.475
0.067,0.482,-0.903,-1.526,11.597,12.207
0.072,0.472,-0.889,-0.549,13.123,12.146
0.073,0.456,-0.88,-0.977,13.977,12.39
0.073,0.46,-0.874,-3.174,14.587,12.817
0.072,0.457,-0.873,-3.54,15.381,12.634
0.075,0.447,-0.875,-2.014,15.93,12.085
0.082,0.449,-0.878,-0.854,15.869,11.23
0.092,0.437,-0.883,-0.793,13.855,9.949
0.097,0.434,-0.882,-3.296,9.521,7.996
0.089,0.445,-0.874,-5.676,4.089,5.859
0.072,0.443,-0.875,-3.479,-0.732,4.578
0.058,0.442,-0.879,-4.028,-2.93,5.615
0.049,0.449,-0.881,-0.305,-1.16,6.592
0.045,0.442,-0.894,3.723,3.296,7.202
0.044,0.443,-0.905,4.578,8.423,8.545
0.056,0.437,-0.919,6.042,13,9.644
0.074,0.425,-0.926,8.911,16.663,10.254
0.091,0.424,-0.929,10.01,17.944,9.827
0.092,0.42,-0.929,6.531,16.541,8.179
0.09,0.424,-0.926,4.272,13.367,6.531
0.083,0.432,-0.921,4.639,8.789,4.883
0.061,0.428,-0.91,2.319,3.845,3.479
0.042,0.438,-0.899,0.977,0.977,2.441
0.032,0.433,-0.907,4.822,0.793,2.38
0.028,0.429,-0.919,5.92,3.235,3.418
0.041,0.424,-0.927,6.409,7.69,4.15
0.063,0.417,-0.93,10.559,12.146,3.662
0.071,0.425,-0.928,11.902,13.794,2.747
0.065,0.426,-0.931,8.85,13,1.465
0.062,0.419,-0.936,7.385,11.414,0.732
0.06,0.426,-0.928,7.019,10.437,-0.305
-0.341,0.531,-0.818,26.733,114.624,42.175
-0.326,0.526,-0.82,36.621,130.005,48.035
-0.306,0.514,-0.832,48.706,140.93,51.941
-0.285,0.5,-0.855,60.486,147.583,52.124
-0.298,0.483,-0.88,66.284,151.062,51.331
-0.326,0.483,-0.887,66.04,152.161,49.5
-0.352,0.498,-0.884,65.979,152.893,46.631
-0.392,0.494,-0.875,67.2,154.236,44.128
-0.427,0.496,-0.86,65.552,154.846,42.114
-0.467,0.48,-0.838,60.547,156.067,41.138
-0.487,0.487,-0.794,54.443,157.654,41.077
-0.494,0.514,-0.74,49.194,157.959,41.626
-0.505,0.529,-0.697,48.096,154.968,41.748
-0.519,0.547,-0.66,45.776,147.827,41.565
-0.533,0.562,-0.64,42.236,138.245,41.504
-0.553,0.572,-0.638,39.795,125.427,42.175
-0.575,0.58,-0.643,37.842,112.305,42.603
-0.583,0.592,-0.645,34.363,105.347,41.992
-0.608,0.56,-0.646,31.86,106.323,40.649
-0.654,0.53,-0.624,34.18,101.929,43.274
-0.674,0.527,-0.615,33.02,100.525,49.744
-0.646,0.483,-0.617,35.645,102.783,53.162
-0.657,0.467,-0.603,36.804,107.91,55.115
-0.659,0.478,-0.588,35.889,113.953,54.138
-0.662,0.47,-0.578,36.926,121.216,49.133
-0.689,0.461,-0.567,38.94,127.38,43.457
-0.728,0.472,-0.556,40.1,131.226,38.452
-0.756,0.494,-0.542,39.246,132.935,35.156
-0.789,0.507,-0.531,39.551,132.446,34.363
-0.813,0.505,-0.526,41.077,130.127,34.912
-0.823,0.497,-0.519,41.077,127.747,36.621
-0.834,0.474,-0.504,36.194,126.343,39.124
-0.836,0.452,-0.476,33.203,127.014,41.687
-0.826,0.417,-0.432,31.189,130.066,43.701
-0.813,0.407,-0.389,29.236,133.423,44.25
-0.819,0.413,-0.336,25.269,134.766,44.434
-0.802,0.427,-0.29,23.682,131.775,42.236
-0.815,0.449,-0.264,25.696,127.502,40.955
-0.824,0.46,-0.239,23.987,120.422,40.039
-0.834,0.484,-0.219,25.33,113.708,39.185
-0.854,0.5,-0.206,25.269,108.154,40.771
-0.872,0.491,-0.197,26.489,104.37,43.457
-0.896,0.445,-0.184,26.917,103.638,47.241
-0.892,0.395,-0.165,28.748,106.628,51.392
-0.858,0.363,-0.141,29.785,112.488,53.772
-0.839,0.342,-0.119,33.875,119.019,52.49
-0.845,0.344,-0.102,35.4,123.535,49.438
-0.866,0.356,-0.088,39.49,127.686,46.509
-0.885,0.386,-0.069,41.87,132.08,44.8
-0.909,0.409,-0.052,43.945,137.207,44.312
-0.936,0.43,-0.035,47.974,142.517,44.983
-0.959,0.437,-0.019,49.744,148.56,48.218
-0.964,0.389,-0.003,53.955,156.494,53.101
-0.928,0.325,0.019,54.749,164.49,57.251
-0.868,0.276,0.052,58.655,171.326,58.289
-0.806,0.227,0.086,60.181,173.523,56.091
-0.773,0.196,0.114,61.035,169.434,50.537
-0.768,0.191,0.13,63.721,161.499,43.213
-0.793,0.213,0.133,63.354,152.344,36.499
-0.837,0.251,0.138,59.265,143.372,33.081
-0.891,0.283,0.149,56.396,136.414,34.18
-0.918,0.288,0.172,50.476,131.775,40.161
-0.913,0.287,0.211,45.654,129.028,47.18
-0.884,0.258,0.247,43.457,126.892,52.185
-0.848,0.212,0.274,41.382,123.718,53.162
-0.821,0.182,0.295,40.344,119.08,49.5
-0.817,0.16,0.305,39.246,113.525,43.518
-0.828,0.144,0.309,37.048,109.985,37.476
-0.841,0.144,0.312,37.109,109.985,32.166
-0.858,0.153,0.318,34.607,112.244,29.114
-0.862,0.168,0.335,34.79,116.333,27.405
-0.871,0.178,0.36,33.386,121.094,27.222
-0.87,0.178,0.389,32.959,126.404,27.222
-0.864,0.173,0.421,33.813,131.348,27.222
-0.848,0.156,0.453,35.034,136.108,26.611
-0.822,0.136,0.479,37.781,140.808,24.963
-0.797,0.118,0.501,37.537,142.883,22.644
-0.786,0.116,0.524,38.208,142.212,20.264
-0.77,0.128,0.549,37.109,139.526,19.592
-0.749,0.136,0.576,34.668,136.475,19.897
-0.724,0.143,0.603,34.18,133.423,19.836
-0.709,0.157,0.629,31.738,129.517,20.02
-0.699,0.164,0.646,32.166,126.282,20.142
-0.691,0.151,0.669,30.029,124.207,20.203
-0.677,0.132,0.703,31.494,124.207,19.836
-0.658,0.109,0.73,31.86,125.305,19.287
-0.622,0.077,0.735,35.034,127.625,17.09
-0.612,0.07,0.75,33.325,126.953,13.672
-0.628,0.084,0.766,33.264,124.695,10.559
-0.628,0.094,0.776,31.372,122.681,10.437
-0.612,0.106,0.784,32.593,122.009,11.108
-0.592,0.11,0.802,32.043,120.3,11.719
-0.58,0.106,0.825,32.471,117.31,10.925
-0.584,0.096,0.837,33.508,112.244,9.583
-0.583,0.077,0.836,36.804,107.3,8.911
-0.568,0.047,0.827,35.95,101.99,9.216
-0.561,0.029,0.818,36.865,96.558,8.972
-0.565,0.023,0.821,32.959,91.187,8.911
-0.568,0.024,0.826,32.654,88.806,8.545
-0.573,0.031,0.826,30.884,90.088,8.85
-0.578,0.044,0.828,30.823,93.872,9.705
-0.546,0.051,0.846,28.992,99.182,11.658
-0.498,0.058,0.888,27.649,102.356,12.878
-0.469,0.065,0.93,27.1,100.22,12.756
-0.469,0.077,0.946,29.053,94.055,11.963
-0.491,0.083,0.952,30.579,87.036,13.184
-0.489,0.066,0.954,33.02,82.397,17.334
-0.469,0.045,0.951,36.804,80.75,22.034
-0.457,0.024,0.937,37.598,79.956,26.001
-0.426,0.011,0.922,40.405,81.36,28.564
-0.39,0.004,0.915,42.297,85.266,29.236
-0.358,0,0.911,40.222,87.769,28.381
-0.339,0.023,0.916,39.795,89.783,26.917
-0.321,0.03,0.931,35.889,90.088,27.222
-0.297,0.041,0.959,32.898,88.135,28.931
-0.263,0.031,0.979,32.654,86.182,30.701
-0.23,0.011,0.981,34.485,83.862,30.029
-0.217,-0.014,0.959,39.246,81.116,26.062
-0.244,-0.004,0.938,38.94,78.003,21.729
-0.477,-0.508,0.742,36.56,1.831,-6.653
-0.478,-0.553,0.726,39.124,13.062,-10.559
-0.516,-0.595,0.703,39.246,19.958,-16.174
-0.599,-0.623,0.675,37.842,26.245,-22.705
-0.693,-0.629,0.635,36.255,36.621,-28.198
-0.77,-0.618,0.586,37.598,53.406,-30.212
-0.762,-0.627,0.547,38.574,73.608,-26.428
-0.679,-0.641,0.566,35.4,89.05,-18.738
-0.586,-0.657,0.618,26.428,88.013,-11.414
-0.532,-0.66,0.661,17.273,70.984,-5.615
-0.503,-0.658,0.672,11.292,51.27,-2.075
-0.473,-0.68,0.662,8.484,39.063,-1.16
-0.423,-0.711,0.656,6.226,34.607,-4.333
-0.377,-0.744,0.661,3.54,33.081,-13.306
-0.344,-0.768,0.675,0.61,29.907,-26.55
-0.285,-0.779,0.714,-3.052,22.461,-41.687
-0.244,-0.763,0.777,-8.911,3.662,-56.824
-0.224,-0.721,0.831,-15.137,-26.367,-71.899
-0.215,-0.681,0.854,-15.93,-62.073,-87.097
-0.214,-0.651,0.824,-11.78,-99.731,-103.394
-0.22,-0.615,0.745,-7.874,-136.78,-119.812
-0.235,-0.571,0.642,-8.606,-171.57,-135.193
-0.29,-0.496,0.564,-13.611,-203.491,-148.254
-0.334,-0.435,0.495,-20.996,-229.37,-156.799
-0.343,-0.361,0.474,-31.067,-248.169,-162.109
-0.385,-0.245,0.485,-45.41,-271.301,-165.405
-0.435,-0.169,0.491,-61.035,-300.903,-163.086
-0.427,-0.114,0.48,-73.853,-329.59,-158.508
-0.382,-0.091,0.429,-83.74,-360.596,-159.058
-0.367,-0.054,0.352,-89.6,-395.63,-167.969
-0.429,0.03,0.254,-89.478,-428.894,-184.509
-0.587,0.205,0.109,-85.693,-444.031,-203.064
-0.805,0.397,0.01,-87.036,-430.481,-211.243
-0.889,0.424,-0.059,-93.628,-405.151,-200.195
-0.775,0.451,-0.106,-107.666,-386.902,-180.847
-0.689,0.478,-0.089,-129.333,-395.447,-170.166
-0.667,0.566,-0.077,-150.879,-430.908,-168.823
-0.67,0.633,-0.123,-162.048,-472.9,-172.485
-0.67,0.664,-0.214,-161.804,-505.127,-178.833
-0.639,0.662,-0.346,-152.954,-521.79,-189.636
-0.613,0.695,-0.451,-143.921,-523.315,-202.393
-0.638,0.8,-0.499,-134.094,-514.893,-215.027
-0.679,0.865,-0.56,-120.117,-497.742,-223.083
-0.733,0.936,-0.658,-103.76,-479.248,-222.839
-0.75,0.974,-0.81,-88.684,-464.111,-214.783
-0.745,0.922,-0.912,-74.768,-436.34,-204.407
-0.705,0.931,-1.012,-64.27,-402.954,-197.998
-0.679,0.903,-1.001,-53.223,-364.807,-190.43
-0.643,0.829,-0.996,-44.495,-328.491,-183.044
-0.625,0.81,-0.927,-36.926,-293.884,-174.316
-0.597,0.786,-0.889,-26.55,-259.521,-162.659
-0.531,0.719,-0.886,-17.273,-226.807,-146.729
-0.428,0.659,-0.923,-14.343,-200.562,-131.958
-0.321,0.612,-0.973,-15.32,-181.213,-122.925
-0.266,0.589,-0.926,-20.02,-172.058,-117.126
-0.254,0.624,-0.844,-28.809,-173.401,-110.352
-0.284,0.631,-0.757,-26.55,-164.062,-104.675
-0.252,0.599,-0.745,-12.329,-143.799,-101.318
-0.193,0.541,-0.795,0.305,-121.704,-98.694
-0.108,0.489,-0.872,7.202,-105.896,-96.741
-0.051,0.446,-0.955,5.676,-101.746,-95.642
-0.032,0.446,-1.003,-7.08,-111.938,-91.248
-0.064,0.453,-1.023,-20.386,-127.258,-85.388
-0.112,0.456,-1.011,-34.241,-132.751,-78.918
-0.124,0.516,-0.918,-39.917,-123.474,-71.716
-0.097,0.553,-0.764,-36.377,-102.356,-65.063
-0.051,0.55,-0.658,-18.25,-74.158,-62.439
0.029,0.486,-0.664,3.418,-48.828,-61.035
0.109,0.43,-0.728,21.79,-33.813,-59.753
0.13,0.421,-0.808,26.672,-32.227,-58.777
0.066,0.429,-0.92,26.794,-42.053,-59.326
-0.049,0.458,-0.999,16.846,-53.528,-56.641
-0.148,0.5,-1.038,7.08,-57.495,-49.072
-0.191,0.534,-1.032,-1.282,-50.598,-36.682
-0.18,0.554,-0.976,-6.287,-35.706,-22.644
-0.106,0.551,-0.875,-5.066,-18.616,-9.888
-0.014,0.554,-0.779,-2.258,-4.089,-1.831
0.051,0.532,-0.761,8.972,5.249,-1.038
0.102,0.492,-0.831,19.775,8.118,-2.991
0.117,0.482,-0.906,22.583,5.92,-6.47
0.089,0.502,-0.96,23.865,2.258,-10.559
0.036,0.509,-0.997,18.921,-1.221,-13.062
-0.023,0.523,-1,10.803,-4.944,-11.23
-0.071,0.518,-0.974,5.005,-6.653,-5.249
-0.073,0.529,-0.94,-1.16,-3.906,3.479
-0.047,0.519,-0.897,-3.174,2.747,11.047
0.01,0.505,-0.861,-0.549,12.329,14.221
0.068,0.468,-0.843,3.845,20.386,13.672
0.119,0.442,-0.862,11.536,23.01,9.46
0.126,0.44,-0.9,16.968,19.653,3.296
0.077,0.439,-0.936,15.625,11.353,-1.465
0.016,0.462,-0.948,10.681,1.16,-2.808
-0.048,0.492,-0.939,5.615,-3.967,-1.587
-0.096,0.497,-0.93,3.54,-1.709,2.625
-0.089,0.49,-0.924,4.578,5.676,8.911
-0.037,0.484,-0.912,5.005,13.184,14.832
0.011,0.477,-0.909,5.432,16.541,17.578
0.03,0.452,-0.92,5.188,15.503,16.785
0.038,0.452,-0.922,3.601,12.756,15.381
0.036,0.449,-0.922,3.174,10.681,13.428
0.021,0.45,-0.912,3.662,10.681,11.597
-0.002,0.455,-0.904,3.601,11.658,10.62
-0.02,0.44,-0.897,3.296,11.658,11.169
-0.007,0.434,-0.886,2.136,11.23,13.916
0.013,0.432,-0.87,0.488,10.559,16.113
0.029,0.428,-0.859,-1.099,9.46,16.968
0.046,0.418,-0.863,0.671,8.667,16.785
0.058,0.408,-0.886,4.15,8.789,15.137
0.061,0.41,-0.902,5.005,7.568,12.329
0.049,0.424,-0.898,3.967,3.601,9.094
0.023,0.431,-0.889,3.54,-0.122,6.714
-0.006,0.433,-0.897,3.601,-0.977,6.714
-0.027,0.44,-0.908,3.418,2.869,8.606
-0.037,0.438,-0.917,5.432,9.949,10.803
-0.028,0.434,-0.912,7.874,17.151,14.099
-0.001,0.427,-0.899,7.996,20.752,17.334
0.025,0.418,-0.89,7.507,20.142,18.982
0.042,0.409,-0.888,6.165,17.029,19.348
0.05,0.401,-0.903,4.639,14.587,18.433
-0.289,0.525,-0.928,21.484,107.849,48.462
-0.277,0.505,-0.91,23.376,115.906,56.946
-0.23,0.476,-0.909,26.978,123.901,65.125
-0.161,0.423,-0.919,30.884,132.202,70.435
-0.09,0.411,-0.91,33.936,141.113,71.411
-0.06,0.409,-0.892,36.133,146.79,67.261
-0.086,0.414,-0.875,36.377,145.569,59.814
-0.157,0.438,-0.849,34.058,138.733,52.246
-0.266,0.475,-0.828,31.006,128.479,47.913
-0.383,0.498,-0.818,26.184,118.958,48.889
-0.47,0.502,-0.815,20.508,112.549,55.176
-0.525,0.482,-0.809,18.311,109.558,65.308
-0.515,0.489,-0.796,16.357,109.985,75.256
-0.483,0.49,-0.782,15.015,110.962,81.97
-0.451,0.465,-0.796,16.296,109.375,83.801
-0.433,0.443,-0.805,17.456,105.469,83.374
-0.432,0.44,-0.804,15.32,100.037,80.566
-0.465,0.447,-0.795,11.78,93.201,77.454
-0.517,0.456,-0.786,9.399,90.088,75.195
-0.58,0.479,-0.787,7.996,92.773,74.646
-0.656,0.492,-0.792,6.592,102.783,76.294
-0.707,0.47,-0.794,4.456,117.92,81.238
-0.702,0.423,-0.774,2.869,137.329,87.524
-0.645,0.371,-0.731,4.517,155.64,93.567
-0.549,0.323,-0.685,7.69,167.297,95.703
-0.482,0.27,-0.653,13,168.457,91.187
-0.474,0.233,-0.631,17.273,159.79,81.116
-0.521,0.239,-0.614,19.043,145.691,70.129
-0.582,0.25,-0.608,20.203,133.362,60.669
-0.673,0.281,-0.606,20.813,126.465,52.979
-0.771,0.328,-0.598,17.151,124.573,49.194
-0.845,0.354,-0.594,13,127.686,50.598
-0.88,0.344,-0.59,9.827,135.071,55.237
-0.88,0.334,-0.549,5.554,145.569,61.035
-0.844,0.302,-0.498,6.165,154.602,66.65
-0.769,0.245,-0.467,11.414,161.621,70.801
-0.705,0.187,-0.457,17.212,165.894,68.726
-0.687,0.155,-0.451,20.813,165.649,59.998
-0.722,0.16,-0.432,21.118,162.903,49.011
-0.777,0.187,-0.4,18.066,161.316,39.551
-0.837,0.224,-0.361,15.991,161.987,31.921
-0.901,0.273,-0.324,15.747,164.917,26.184
-0.967,0.306,-0.291,13.977,169.434,23.499
-1.001,0.287,-0.279,10.986,176.208,25.208
-0.952,0.215,-0.277,14.587,186.951,31.067
-0.838,0.136,-0.27,19.775,198.242,37.537
-0.732,0.081,-0.245,21.301,205.078,37.231
-0.675,0.094,-0.166,24.109,205.261,28.32
-0.687,0.119,-0.086,28.32,198.059,16.602
-0.743,0.166,-0.022,33.569,185.242,4.883
-0.811,0.231,0.032,35.339,169.434,-4.944
-0.91,0.315,0.078,37.842,154.785,-13
-1.029,0.398,0.111,38.452,144.226,-16.846
-1.134,0.424,0.132,40.283,140.381,-14.343
-1.182,0.382,0.139,41.809,143.86,-6.592
-1.152,0.321,0.149,41.077,151.001,2.197
-1.088,0.26,0.175,38.147,155.701,9.46
-1.031,0.22,0.201,36.56,154.724,12.39
-0.998,0.228,0.233,37.231,148.437,11.719
-0.992,0.258,0.258,39.246,139.832,9.888
-0.999,0.289,0.267,43.945,132.202,8.667
-1.015,0.333,0.266,50.11,128.479,9.277
-1.031,0.363,0.251,55.42,130.127,11.78
-1.039,0.347,0.226,61.829,137.939,15.808
-1.026,0.305,0.201,70.068,150.085,19.958
-0.986,0.215,0.158,78.43,165.039,23.315
-0.938,0.072,0.103,85.632,180.42,24.17
-0.868,-0.01,0.064,88.135,191.528,23.987
-0.815,-0.034,0.057,85.693,196.472,22.461
-0.797,-0.018,0.079,80.688,197.021,19.47
-0.795,0.034,0.131,74.341,196.96,16.541
-0.817,0.095,0.209,64.697,196.167,14.893
-0.841,0.166,0.295,59.509,197.021,15.381
-0.872,0.201,0.373,55.359,199.341,18.616
-0.866,0.203,0.428,54.565,201.904,24.048
-0.842,0.159,0.467,54.504,204.712,28.625
-0.805,0.103,0.505,53.528,206.299,31.311
-0.768,0.05,0.541,50.415,205.444,32.288
-0.72,0.006,0.574,48.279,203.308,31.921
-0.685,-0.017,0.621,45.166,199.036,30.273
-0.672,-0.011,0.664,41.565,193.787,28.259
-0.655,0.005,0.711,39.429,188.477,26.611
-0.649,0.019,0.756,36.987,183.594,25.757
-0.64,0.037,0.787,35.217,177.734,26.245
-0.621,0.053,0.818,36.743,172.791,27.771
-0.588,0.055,0.834,35.095,167.297,29.968
-0.558,0.047,0.839,35.095,160.339,30.334
-0.547,0.031,0.822,38.086,152.527,29.236
-0.551,0.005,0.792,35.095,143.433,30.029
-0.551,-0.04,0.767,34.241,135.376,31.86
-0.525,-0.079,0.764,29.907,128.54,34.851
-0.498,-0.108,0.786,23.071,121.155,37.109
-0.483,-0.109,0.814,18.799,114.014,37.476
-0.462,-0.091,0.842,15.442,109.558,37.354
-0.433,-0.072,0.873,15.503,110.535,36.743
-0.405,-0.055,0.885,15.137,114.868,35.095
-0.396,-0.021,0.883,19.287,121.338,33.447
-0.36,-0.008,0.881,19.287,128.967,34.424
-0.3,-0.02,0.903,15.747,134.583,35.828
-0.249,-0.037,0.958,14.221,134.705,35.034
-0.225,-0.039,1.024,8.301,126.587,32.837
-0.219,-0.029,1.077,6.897,114.258,29.358
-0.22,-0.026,1.101,10.925,101.99,26.55
-0.221,-0.026,1.095,13.733,90.027,25.024
-0.227,-0.029,1.059,16.052,78.186,24.597
-0.244,-0.017,1.01,19.653,67.505,25.818
-0.25,-0.01,0.974,17.09,59.082,30.518
-0.237,-0.002,0.952,15.686,54.749,36.255
-0.209,-0.006,0.945,15.503,54.932,40.833
-0.174,-0.025,0.935,12.512,57.8,42.786
-0.136,-0.049,0.929,12.512,63.599,40.649
-0.099,-0.073,0.919,14.526,71.167,34.485
-0.076,-0.097,0.923,11.658,77.637,25.818
-0.081,-0.105,0.935,11.353,80.994,15.808
-0.101,-0.111,0.953,11.169,80.566,8.423
-0.12,-0.099,0.955,11.597,77.576,5.127
-0.151,-0.087,0.954,9.338,73.059,6.958
-0.157,-0.06,0.947,8.484,67.322,12.451
-0.139,-0.048,0.955,8.057,61.279,20.142
-0.342,-0.492,1.037,22.217,-90.149,-15.198
-0.361,-0.556,1.095,22.644,-94.238,-24.902
-0.369,-0.614,1.161,22.461,-100.159,-37.048
-0.361,-0.612,1.235,24.048,-106.812,-50.476
-0.342,-0.615,1.292,30.823,-114.197,-68.848
-0.336,-0.666,1.33,37.903,-125.488,-91.553
-0.353,-0.701,1.335,40.222,-143.25,-112.427
-0.36,-0.7,1.307,42.175,-167.969,-129.761
-0.344,-0.673,1.256,43.762,-200.989,-145.02
-0.335,-0.646,1.167,39.246,-243.286,-156.921
-0.328,-0.615,1.039,29.846,-291.565,-166.565
-0.345,-0.563,0.878,20.325,-337.463,-174.805
-0.395,-0.5,0.709,6.897,-374.268,-182.129
-0.46,-0.419,0.56,-7.324,-392.883,-188.904
-0.559,-0.372,0.457,-19.836,-390.808,-193.909
-0.671,-0.329,0.407,-28.198,-374.268,-196.228
-0.738,-0.295,0.353,-35.461,-351.501,-192.749
-0.746,-0.266,0.294,-38.574,-328.003,-187.012
-0.742,-0.229,0.231,-42.114,-319.641,-182.556
-0.776,-0.217,0.122,-49.683,-331.177,-174.438
-0.779,-0.203,-0.047,-63.477,-351.135,-163.574
-0.724,-0.161,-0.203,-86.304,-369.995,-154.358
-0.644,-0.112,-0.293,-107.3,-383.362,-152.039
-0.634,-0.036,-0.354,-130.005,-392.029,-157.166
-0.697,0.035,-0.43,-146.729,-390.564,-162.903
-0.746,0.096,-0.466,-159.912,-380.371,-162.537
-0.737,0.197,-0.459,-170.715,-367.676,-155.273
-0.703,0.319,-0.4,-178.528,-355.774,-145.142
-0.629,0.418,-0.327,-176.819,-350.403,-135.01
-0.485,0.535,-0.289,-167.847,-353.333,-127.869
-0.319,0.642,-0.336,-155.945,-361.45,-127.38
-0.232,0.754,-0.41,-139.221,-369.141,-136.719
-0.19,0.862,-0.466,-126.038,-368.591,-151.855
-0.191,0.957,-0.46,-107.483,-354.004,-168.213
-0.244,0.937,-0.483,-88.562,-327.82,-181.335
-0.272,0.933,-0.522,-66.467,-281.555,-190.735
-0.285,0.962,-0.493,-52.917,-249.268,-190.186
-0.218,1,-0.6,-42.542,-229.248,-186.401
-0.188,0.996,-0.738,-40.161,-224.487,-181.702
-0.259,1.024,-0.805,-47.363,-224.243,-182.312
-0.28,1.023,-0.764,-57.19,-219.482,-185.547
-0.42,0.981,-0.679,-60.059,-210.632,-174.683
-0.508,0.862,-0.602,-58.289,-193.848,-158.997
-0.516,0.821,-0.571,-48.767,-163.513,-145.813
-0.5,0.832,-0.551,-44.006,-134.338,-129.333
-0.437,0.776,-0.619,-34.485,-114.746,-117.737
-0.377,0.717,-0.724,-33.569,-111.206,-109.009
-0.355,0.681,-0.819,-45.959,-129.089,-99.792
-0.409,0.69,-0.855,-65.247,-158.325,-88.806
-0.459,0.706,-0.807,-80.261,-180.908,-75.378
-0.481,0.761,-0.695,-82.336,-179.016,-58.838
-0.467,0.761,-0.621,-68.359,-151.123,-43.274
-0.394,0.675,-0.632,-42.786,-106.506,-26.489
-0.247,0.589,-0.67,-12.939,-53.955,-13
-0.159,0.513,-0.723,6.958,-11.963,-7.324
0.139,0.448,-0.831,15.442,6.775,-12.756
0.076,0.406,-0.874,9.949,-3.662,-10.559
0.072,0.463,-0.869,-6.409,-31.921,-18.25
0.039,0.516,-0.836,-18.677,-59.631,-31.982
-0.117,0.576,-0.797,-26.306,-78.979,-36.133
-0.167,0.631,-0.752,-26.855,-82.703,-38.452
-0.212,0.629,-0.747,-17.151,-72.693,-37.781
-0.238,0.637,-0.785,-1.648,-57.8,-32.715
-0.237,0.621,-0.845,7.385,-43.945,-26.672
-0.235,0.589,-0.9,14.587,-33.569,-17.334
-0.199,0.583,-0.942,15.442,-23.987,-7.141
-0.232,0.553,-0.951,11.169,-14.771,1.526
-0.15,0.527,-0.954,8.789,-5.371,5.676
-0.132,0.506,-0.932,6.409,5.005,10.864
-0.057,0.5,-0.912,2.502,9.888,11.169
-0.021,0.516,-0.863,2.197,10.864,5.981
-0.026,0.516,-0.847,5.005,6.775,0.793
-0.049,0.517,-0.869,6.287,-0.488,-3.052
-0.055,0.522,-0.897,6.592,-7.263,-6.531
-0.119,0.538,-0.905,8.179,-12.939,-5.249
-0.129,0.545,-0.91,9.949,-13.489,-5.798
-0.165,0.535,-0.926,7.751,-10.01,-3.662
-0.161,0.521,-0.921,5.493,-5.798,0.305
-0.147,0.528,-0.899,3.601,-1.709,4.15
-0.128,0.533,-0.891,3.296,1.282,5.981
-0.111,0.531,-0.886,3.906,2.441,6.226
-0.147,0.533,-0.875,2.869,1.282,6.592
-0.115,0.532,-0.873,1.404,0.061,5.31
-0.155,0.539,-0.862,2.319,0.732,6.592
-0.159,0.534,-0.866,5.066,3.601,7.935
-0.158,0.522,-0.879,9.827,9.399,10.864
-0.127,0.504,-0.889,9.949,16.479,15.32
-0.08,0.496,-0.885,13.062,22.278,16.968
-0.053,0.495,-0.882,13.306,22.888,16.113
-0.039,0.486,-0.885,10.62,18.738,12.451
-0.033,0.485,-0.892,9.583,11.108,6.958
-0.056,0.491,-0.898,7.629,1.038,2.197
-0.091,0.501,-0.898,3.052,-8.301,-1.648
-0.134,0.512,-0.892,-0.916,-13.55,-2.991
-0.168,0.516,-0.89,0.671,-13.367,-2.075
-0.186,0.506,-0.898,2.563,-9.094,1.953
-0.173,0.506,-0.902,4.395,-0.61,7.324
-0.144,0.499,-0.895,8.972,9.705,12.207
-0.104,0.481,-0.891,10.742,18.311,15.198
-0.066,0.462,-0.886,13.062,23.743,16.602
-0.023,0.451,-0.876,12.695,23.804,15.259
-0.008,0.445,-0.876,10.376,17.639,11.902
-0.022,0.444,-0.884,6.714,8.789,7.812
-0.051,0.457,-0.88,7.08,2.502,3.418
-0.094,0.476,-0.88,5.127,-0.061,0.854
-0.133,0.48,-0.883,5.615,0.244,0.671
-0.15,0.48,-0.887,5.066,2.991,2.502
-0.147,0.478,-0.887,6.287,6.592,5.249
-0.13,0.466,-0.887,5.493,9.216,8.24
-0.114,0.468,-0.889,7.324,10.864,10.437
-0.103,0.469,-0.886,5.859,12.756,11.292
-0.102,0.465,-0.883,8.118,15.93,10.376
-0.099,0.463,-0.884,10.803,19.836,9.033
-0.096,0.462,-0.88,10.193,22.949,7.874
-0.097,0.453,-0.879,11.658,23.01,6.348
-0.1,0.46,-0.875,7.812,18.982,5.859
-0.113,0.466,-0.871,6.897,12.878,4.822
-0.134,0.467,-0.873,4.211,6.531,4.333
-0.148,0.471,-0.882,0.732,2.075,5.188
-0.481,0.395,-0.824,6.897,18.311,18.188
-0.477,0.396,-0.807,5.737,25.696,21.851
-0.461,0.399,-0.792,9.888,32.043,24.658
-0.446,0.402,-0.782,12.268,36.438,27.283
-0.432,0.401,-0.782,18.005,39.551,28.076
-0.422,0.398,-0.791,21.912,41.992,28.259
-0.421,0.395,-0.81,25.208,44.189,26.855
-0.427,0.398,-0.816,25.818,47.119,24.597
-0.443,0.399,-0.818,26.245,50.537,23.01
-0.461,0.378,-0.814,25.146,54.321,22.705
-0.476,0.342,-0.795,25.757,57.678,22.949
-0.472,0.319,-0.763,22.827,59.509,24.658
-0.442,0.309,-0.737,20.63,58.044,26.611
-0.411,0.307,-0.729,20.691,52.734,26.428
-0.392,0.307,-0.732,18.86,43.945,23.621
-0.389,0.315,-0.743,19.653,33.02,18.616
-0.402,0.321,-0.767,16.907,20.752,13.733
-0.426,0.336,-0.793,13.55,10.193,9.033
-0.473,0.361,-0.803,10.986,2.93,5.005
-0.526,0.377,-0.801,5.066,0.244,3.845
-0.553,0.396,-0.794,4.028,2.014,5.798
-0.562,0.403,-0.782,6.47,6.897,9.705
-0.562,0.384,-0.764,9.033,13.306,14.038
-0.54,0.38,-0.742,8.423,19.104,18.005
-0.507,0.383,-0.726,12.268,22.888,19.775
-0.475,0.377,-0.735,15.198,23.865,19.47
-0.462,0.368,-0.754,15.198,22.217,16.541
-0.469,0.378,-0.768,16.052,19.043,12.39
-0.493,0.4,-0.781,11.963,14.832,9.216
-0.524,0.412,-0.788,10.864,12.329,7.019
-0.553,0.407,-0.784,9.399,13.672,7.019
-0.575,0.389,-0.76,5.981,17.883,9.766
-0.58,0.362,-0.722,6.409,22.766,13.306
-0.56,0.358,-0.688,5.92,26.001,17.029
-0.524,0.365,-0.671,5.981,25.146,19.348
-0.501,0.364,-0.687,10.742,19.409,18.372
-0.501,0.367,-0.732,10.498,11.353,14.954
-0.518,0.374,-0.779,10.132,4.822,9.766
-0.545,0.387,-0.818,10.559,-0.305,4.944
-0.581,0.401,-0.847,10.62,-3.113,1.77
-0.616,0.414,-0.869,8.85,-2.686,0.793
-0.65,0.411,-0.871,5.737,2.075,2.319
-0.668,0.39,-0.853,3.235,11.658,5.676
-0.662,0.37,-0.819,3.174,22.888,10.132
-0.618,0.358,-0.784,3.784,31.982,14.893
-0.558,0.348,-0.759,5.92,36.316,17.761
-0.512,0.347,-0.744,7.996,34.729,17.578
-0.499,0.342,-0.738,7.019,28.442,14.526
-0.51,0.346,-0.741,5.92,20.813,9.888
-0.538,0.36,-0.75,4.028,13.611,6.165
-0.568,0.364,-0.761,4.517,9.705,3.235
-0.6,0.369,-0.762,5.859,9.583,2.197
-0.632,0.354,-0.755,5.798,11.902,3.235
-0.644,0.331,-0.747,4.395,15.137,6.104
-0.629,0.327,-0.728,1.282,17.334,9.888
-0.606,0.327,-0.711,3.052,17.7,12.085
-0.583,0.327,-0.702,6.897,16.113,11.902
-0.577,0.339,-0.703,7.08,13.062,10.071
-0.582,0.346,-0.71,8.179,10.01,7.874
-0.579,0.349,-0.738,11.23,7.141,4.517
-0.595,0.35,-0.758,8.484,4.7,1.343
-0.622,0.362,-0.759,7.324,2.563,-1.282
-0.66,0.366,-0.751,5.92,0.183,-1.953
-0.683,0.373,-0.744,2.136,-1.709,0.671
-0.691,0.374,-0.743,0.488,-2.014,4.944
-0.676,0.355,-0.758,1.709,-0.732,8.789
-0.648,0.332,-0.757,-1.099,1.099,11.78
-0.612,0.328,-0.74,-0.977,0.366,12.634
-0.592,0.325,-0.728,-2.869,-2.93,11.963
-0.592,0.332,-0.725,-5.005,-7.08,9.827
-0.605,0.344,-0.727,-2.747,-9.705,6.592
-0.624,0.35,-0.73,0,-9.399,4.333
-0.637,0.349,-0.737,3.113,-6.714,4.089
-0.637,0.341,-0.75,4.883,-2.747,5.31
-0.639,0.335,-0.765,4.761,1.465,6.836
-0.635,0.335,-0.771,5.859,5.493,8.545
-0.625,0.321,-0.774,8.728,8.423,10.925
-0.607,0.305,-0.773,7.629,9.338,13.184
-0.58,0.285,-0.775,5.554,8.972,14.404
-0.558,0.266,-0.778,5.249,6.592,13.428
-0.542,0.259,-0.77,0.122,2.563,11.353
-0.545,0.265,-0.754,-2.441,-2.502,8.179
-0.563,0.271,-0.75,-2.869,-7.263,5.371
-0.583,0.278,-0.746,-5.188,-9.888,3.845
-0.603,0.278,-0.746,-2.258,-9.216,2.686
-0.613,0.278,-0.752,-0.854,-7.202,3.235
-0.61,0.273,-0.757,-1.404,-5.005,4.639
-0.597,0.272,-0.764,1.709,-2.93,4.944
-0.589,0.277,-0.769,3.174,-2.319,5.127
-0.584,0.279,-0.778,1.953,-2.869,5.31
-0.583,0.285,-0.789,2.686,-3.418,4.333
-0.59,0.288,-0.802,2.319,-3.357,3.296
-0.599,0.287,-0.804,2.38,-1.831,2.136
-0.605,0.297,-0.797,2.808,0.671,1.404
-0.611,0.305,-0.792,1.465,2.563,1.648
-0.612,0.307,-0.786,-0.122,3.601,2.319
-0.609,0.312,-0.779,0.854,3.906,2.93
-0.61,0.31,-0.77,1.709,3.54,3.845
-0.608,0.308,-0.763,3.601,3.174,4.333
-0.601,0.299,-0.764,4.395,3.052,5.005
-0.597,0.291,-0.765,2.625,2.563,5.615
-0.597,0.286,-0.764,2.686,2.502,5.554
-0.595,0.271,-0.765,4.333,2.625,5.371
-0.589,0.266,-0.761,5.554,3.662,4.944
-0.578,0.269,-0.759,6.714,5.615,4.395
-0.572,0.266,-0.761,7.568,7.446,3.296
-0.563,0.264,-0.763,6.897,8.728,2.075
-0.559,0.272,-0.755,5.371,8.301,0.977
-0.569,0.275,-0.746,6.104,6.287,-0.122
-0.581,0.269,-0.743,7.996,4.333,-0.671
-0.592,0.259,-0.749,7.874,3.174,-0.793
-0.596,0.264,-0.751,5.676,2.747,-0.366
-0.596,0.266,-0.754,5.249,2.38,0.305
-0.594,0.258,-0.765,6.958,2.258,0.366
-0.592,0.261,-0.769,4.395,2.136,0.61
-0.594,0.26,-0.772,3.967,2.258,0.793
-0.589,0.261,-0.774,4.883,3.235,0.854
-0.578,0.263,-0.771,5.981,5.798,0.61
-0.574,0.271,-0.763,8.911,9.399,-0.244
,,,,,
-0.671,0.292,-0.749,-0.183,-7.69,-5.31
-0.639,0.321,-0.748,0.549,-2.625,-3.601
-0.642,0.287,-0.743,4.15,2.686,-1.831
-0.61,0.293,-0.748,6.226,6.042,-0.854
-0.6,0.291,-0.755,7.385,6.592,-1.16
-0.601,0.287,-0.769,6.836,5.188,-1.77
-0.595,0.299,-0.782,7.751,4.089,-2.38
-0.602,0.286,-0.798,9.399,3.662,-2.441
-0.605,0.282,-0.806,7.324,3.784,-2.197
-0.609,0.269,-0.81,3.235,5.31,-1.221
-0.608,0.264,-0.809,2.93,8.362,-0.183
-0.594,0.263,-0.796,3.906,12.817,0.122
-0.586,0.267,-0.777,2.319,17.517,0.061
-0.584,0.272,-0.754,0.732,22.095,-1.099
-0.587,0.268,-0.732,2.93,25.574,-2.991
-0.594,0.267,-0.71,1.221,26.489,-3.54
-0.606,0.292,-0.701,3.601,26.001,-3.723
-0.62,0.303,-0.697,5.127,24.597,-4.089
-0.635,0.306,-0.709,6.897,23.804,-3.723
-0.648,0.308,-0.724,8.789,23.682,-2.441
-0.645,0.306,-0.731,8.118,23.865,-0.671
-0.645,0.312,-0.733,7.812,23.254,1.526
-0.644,0.299,-0.745,8.057,21.24,4.333
-0.64,0.279,-0.754,7.935,19.043,7.019
-0.645,0.278,-0.766,5.798,18.433,8.972
-0.653,0.283,-0.761,3.662,20.508,9.766
-0.661,0.294,-0.75,4.578,24.902,9.949
-0.666,0.305,-0.741,2.747,30.09,11.108
-0.676,0.311,-0.736,6.165,36.316,11.78
-0.689,0.314,-0.732,9.583,43.64,12.207
-0.708,0.315,-0.728,14.587,51.819,13.184
-0.716,0.31,-0.72,17.456,60.425,15.381
-0.717,0.301,-0.717,22.827,68.848,17.212
-0.709,0.292,-0.716,25.269,76.355,19.043
-0.7,0.281,-0.717,28.87,82.52,19.775
-0.687,0.272,-0.707,29.053,86.731,19.531
-0.678,0.265,-0.7,28.198,88.44,18.799
-0.665,0.265,-0.705,25.513,87.402,17.09
-0.667,0.257,-0.697,21.179,84.106,14.893
-0.679,0.25,-0.684,15.625,78.796,13.245
-0.708,0.256,-0.669,9.216,71.533,13.428
-0.739,0.268,-0.651,2.808,63.782,15.137
-0.758,0.276,-0.631,-1.465,56.946,17.334
-0.765,0.29,-0.615,-4.333,51.636,20.325
-0.765,0.303,-0.607,-4.395,47.424,22.888
-0.766,0.294,-0.6,-2.747,44.861,24.658
-0.765,0.282,-0.592,0.488,45.166,24.353
-0.76,0.268,-0.59,3.296,47.302,22.827
-0.766,0.259,-0.593,4.822,50.354,21.301
-0.782,0.253,-0.605,5.249,54.382,20.203
-0.794,0.251,-0.609,4.883,59.509,20.264
-0.799,0.252,-0.592,2.93,65.918,20.63
-0.807,0.26,-0.568,2.441,72.815,20.63
-0.82,0.253,-0.547,2.869,78.979,20.874
-0.822,0.237,-0.526,5.249,84.229,21.606
-0.811,0.22,-0.512,6.653,87.524,22.583
-0.794,0.215,-0.503,8.057,88.257,22.827
-0.791,0.21,-0.496,11.475,86.914,21.362
-0.798,0.211,-0.498,10.742,84.778,19.653
-0.824,0.223,-0.496,11.475,82.825,17.822
-0.861,0.235,-0.493,9.705,81.726,18.25
-0.89,0.233,-0.497,8.789,81.909,21.79
-0.897,0.219,-0.496,5.92,83.862,26.855
-0.895,0.207,-0.488,4.7,87.769,30.212
-0.896,0.2,-0.467,2.38,92.834,32.41
-0.893,0.189,-0.438,0.366,97.656,33.569
-0.889,0.182,-0.406,-0.854,101.135,34.058
-0.892,0.176,-0.379,1.282,103.027,33.997
-0.904,0.174,-0.366,1.343,103.394,34.363
-0.921,0.174,-0.36,1.953,103.516,35.095
-0.934,0.177,-0.355,3.479,104.187,36.621
-0.955,0.184,-0.346,2.502,105.469,38.94
-0.974,0.183,-0.337,3.54,107.239,40.71
-0.988,0.165,-0.327,3.296,108.398,42.786
-0.991,0.137,-0.305,4.822,109.68,44.495
-0.984,0.118,-0.274,3.784,111.267,45.166
-0.975,0.118,-0.24,4.517,112.061,43.579
-0.974,0.117,-0.214,5.676,111.328,39.307
-0.996,0.105,-0.189,7.874,110.413,35.706
-1.026,0.105,-0.175,11.719,110.718,34.79
-1.037,0.117,-0.166,11.78,112.854,36.377
-1.036,0.107,-0.162,15.747,115.601,37.231
-1.019,0.082,-0.162,16.724,118.103,38.574
-1.003,0.063,-0.155,18.25,119.446,39.001
-0.99,0.049,-0.133,16.846,120.056,38.635
-0.987,0.037,-0.106,17.212,119.507,36.987
-0.998,0.028,-0.081,15.564,118.53,34.912
-1.022,0.034,-0.056,18.005,118.042,33.386
-1.037,0.036,-0.034,17.395,119.568,34.363
-1.027,0.031,-0.015,17.151,122.925,35.706
-1.016,0.027,0.008,18.555,126.404,35.95
-1,0.02,0.033,18.494,128.845,35.706
-0.97,0.006,0.06,17.7,129.272,34.668
-0.941,-0.013,0.088,18.555,127.258,31.799
-0.926,-0.03,0.11,19.043,123.23,27.71
-0.931,-0.034,0.136,19.104,118.591,23.437
-0.958,-0.028,0.155,20.874,115.173,19.775
-0.986,-0.019,0.165,21.118,115.051,18.311
-0.99,-0.013,0.178,23.804,119.324,18.066
-0.996,-0.015,0.19,22.766,126.648,18.311
-0.967,-0.027,0.199,24.658,133.606,19.043
-0.942,-0.034,0.218,22.461,136.597,18.982
-0.918,-0.043,0.247,22.034,137.085,17.456
-0.91,-0.039,0.285,19.958,136.292,15.991
-0.885,-0.043,0.318,19.592,133.362,14.465
-0.891,-0.066,0.347,20.447,129.639,11.963
-0.874,-0.057,0.362,21.118,127.563,11.169
-0.855,-0.062,0.375,22.095,125.366,9.277
-0.87,-0.071,0.395,23.499,124.939,6.47
-0.872,-0.054,0.44,25.696,125.061,6.714
-0.818,-0.033,0.431,24.414,123.596,4.089
-0.796,-0.04,0.457,23.865,124.268,-1.282
-0.785,-0.032,0.476,23.804,126.099,-3.052
-0.784,-0.033,0.507,24.231,123.291,-3.784
-0.785,-0.026,0.536,22.888,117.31,-4.028
-0.783,-0.024,0.561,23.865,108.704,-3.723
-0.786,-0.031,0.572,22.766,98.755,-2.197
-0.783,-0.033,0.567,23.743,89.05,-0.061
-0.797,-0.038,0.557,21.423,81.726,2.319
0.146,-0.417,1.214,16.663,-153.625,-43.213
0.067,-0.422,1.219,18.921,-188.782,-54.443
-0.073,-0.392,1.187,23.621,-219.238,-63.293
-0.189,-0.369,1.129,29.053,-236.938,-67.139
-0.283,-0.35,1.076,33.569,-239.624,-65.735
-0.317,-0.388,1.049,35.522,-233.765,-59.57
-0.29,-0.444,1.074,31.799,-230.347,-51.758
-0.249,-0.497,1.109,24.292,-239.746,-44.983
-0.224,-0.534,1.152,18.127,-263.245,-41.809
-0.21,-0.536,1.197,13.672,-296.021,-40.771
-0.185,-0.529,1.229,13.611,-334.717,-43.03
-0.167,-0.522,1.175,22.827,-373.596,-50.903
-0.166,-0.517,1.041,35.095,-410.645,-62.927
-0.15,-0.525,0.853,40.649,-445.801,-76.599
-0.172,-0.555,0.638,37.72,-479.065,-91.614
-0.193,-0.56,0.45,24.902,-506.958,-108.459
-0.229,-0.559,0.299,9.094,-525.818,-128.357
-0.276,-0.499,0.214,-8.728,-535.095,-147.705
-0.3,-0.418,0.169,-22.583,-537.598,-165.405
-0.355,-0.332,0.127,-29.236,-538.513,-182.8
-0.492,-0.268,0.032,-29.419,-538.879,-198.303
-0.629,-0.187,-0.114,-28.442,-535.706,-204.102
-0.742,-0.135,-0.298,-25.879,-527.222,-198.364
-0.776,-0.166,-0.514,-29.358,-520.325,-184.814
-0.723,-0.182,-0.767,-42.236,-521.667,-169.922
-0.618,-0.161,-0.933,-67.627,-533.813,-159.241
-0.522,-0.109,-0.992,-98.694,-551.025,-156.86
-0.49,0.028,-0.976,-117.981,-567.2,-164.124
-0.501,0.143,-0.942,-124.451,-575.928,-172.241
-0.507,0.313,-0.943,-111.572,-567.017,-176.819
-0.571,0.468,-0.919,-87.036,-530.64,-178.772
-0.571,0.577,-0.88,-55.481,-476.624,-178.406
-0.561,0.654,-0.842,-18.921,-414.429,-174.377
-0.472,0.701,-0.846,14.526,-348.45,-169.983
-0.382,0.727,-0.851,41.565,-278.625,-171.631
-0.301,0.752,-0.85,60.486,-213.196,-175.903
-0.222,0.791,-0.846,69.641,-168.823,-176.514
-0.155,0.78,-0.824,69.763,-146.545,-174.377
-0.123,0.796,-0.759,63.599,-139.099,-171.753
-0.115,0.847,-0.67,57.556,-141.968,-168.213
-0.106,0.885,-0.623,56.946,-143.738,-163.452
-0.093,0.879,-0.682,62.561,-139.526,-158.752
-0.052,0.796,-0.851,66.528,-131.958,-154.175
0.007,0.732,-0.978,56.946,-124.512,-149.719
0.046,0.746,-0.981,34.668,-121.216,-147.827
0.011,0.761,-0.933,13.306,-122.742,-146.667
-0.057,0.804,-0.854,-0.305,-125.183,-144.104
-0.183,0.87,-0.758,-5.432,-121.399,-140.808
-0.315,0.936,-0.695,-1.099,-111.145,-138.062
-0.499,0.973,-0.686,9.033,-101.013,-136.23
-0.699,0.987,-0.754,18.738,-96.375,-133.606
-0.817,0.991,-0.904,22.217,-100.037,-122.864
-0.851,0.862,-1.085,17.09,-104.98,-93.201
-0.755,0.75,-1.217,6.165,-96.619,-47.18
-0.539,0.663,-1.266,-5.005,-65.186,0.671
-0.245,0.582,-1.209,-15.869,-16.907,37.842
0.048,0.516,-1.019,-23.804,28.809,59.265
0.297,0.523,-0.769,-28.137,56.03,63.171
0.419,0.495,-0.516,-23.621,57.678,49.011
0.448,0.497,-0.409,-11.597,38.025,24.17
0.382,0.484,-0.508,6.531,7.019,-2.197
0.254,0.5,-0.693,19.714,-21.301,-23.254
0.056,0.521,-0.874,24.414,-37.903,-35.156
-0.138,0.554,-1.006,24.902,-41.016,-35.583
-0.269,0.576,-1.044,19.104,-28.748,-25.208
-0.303,0.587,-0.99,9.949,-7.568,-7.263
-0.236,0.617,-0.911,3.235,12.329,11.414
-0.143,0.602,-0.853,-0.122,24.353,24.902
-0.03,0.578,-0.805,-1.221,27.039,30.518
0.058,0.547,-0.773,-1.831,21.973,28.748
0.089,0.522,-0.762,-1.953,10.742,21.423
0.052,0.512,-0.766,-1.648,-2.747,12.939
-0.016,0.518,-0.776,-2.686,-13.855,7.996
-0.069,0.526,-0.8,-2.808,-18.494,7.263
-0.089,0.536,-0.851,0.122,-14.404,8.789
-0.089,0.53,-0.906,5.31,-5.432,11.169
-0.072,0.521,-0.933,9.033,4.211,12.695
-0.051,0.517,-0.915,9.277,12.085,12.878
-0.044,0.514,-0.885,6.897,15.076,10.681
-0.036,0.506,-0.844,2.319,13.367,8.667
-0.025,0.511,-0.802,1.465,9.644,6.592
-0.03,0.49,-0.789,1.77,3.357,3.296
-0.047,0.497,-0.797,-0.488,-2.747,1.221
-0.074,0.5,-0.818,1.404,-6.592,-1.099
-0.103,0.511,-0.839,5.615,-7.08,-2.625
-0.127,0.522,-0.851,7.935,-4.028,-2.625
-0.134,0.515,-0.856,8.118,0.793,0.061
-0.109,0.509,-0.848,11.047,7.812,4.089
-0.075,0.504,-0.839,11.841,14.648,7.141
-0.038,0.5,-0.834,10.376,18.616,8.179
-0.004,0.49,-0.839,10.742,18.311,5.737
0.002,0.485,-0.851,8.85,11.353,2.197
-0.017,0.496,-0.858,6.348,0.977,-0.854
-0.047,0.511,-0.872,4.944,-6.958,-2.38
-0.07,0.497,-0.889,4.944,-9.583,-1.953
-0.068,0.503,-0.89,6.348,-5.432,-0.305
-0.061,0.502,-0.883,8.728,1.709,1.709
-0.051,0.5,-0.881,10.437,8.911,3.845
-0.05,0.496,-0.886,13.062,14.16,4.395
-0.048,0.493,-0.889,14.526,17.09,4.333
-0.051,0.494,-0.892,13.977,17.334,4.089
-0.06,0.492,-0.897,13.733,16.052,3.296
-0.065,0.486,-0.902,13.428,13.977,2.93
-0.062,0.493,-0.902,9.888,10.803,3.296
-0.067,0.49,-0.895,4.883,8.24,3.418
-0.075,0.498,-0.877,4.456,6.958,3.357
-0.086,0.516,-0.859,6.653,6.775,3.418
-0.101,0.519,-0.856,8.728,7.996,3.967
-0.098,0.512,-0.858,10.62,11.78,4.761
-0.089,0.502,-0.865,15.381,16.418,4.456
-0.088,0.493,-0.877,17.334,18.127,4.028
-0.091,0.48,-0.885,14.16,16.968,3.906
-0.09,0.477,-0.889,11.597,14.526,3.296
-0.1,0.484,-0.891,11.78,11.353,1.831
-0.116,0.497,-0.893,8.911,7.812,0.671
-0.135,0.503,-0.891,5.371,4.883,0.793
-0.149,0.513,-0.877,6.897,4.761,1.221
-0.16,0.52,-0.857,5.92,6.165,2.38
-0.161,0.521,-0.843,6.836,8.728,4.395
-0.426,0.491,-0.822,21.729,58.289,9.277
-0.438,0.497,-0.811,20.996,63.782,10.498
-0.443,0.496,-0.8,24.963,68.787,12.207
-0.445,0.494,-0.786,24.475,73.425,14.648
-0.45,0.472,-0.773,26.733,77.942,16.418
-0.445,0.455,-0.759,26.123,81.299,18.25
-0.425,0.455,-0.75,27.161,82.581,19.714
-0.416,0.451,-0.746,25.33,81.055,19.775
-0.417,0.454,-0.734,23.376,78.247,17.822
-0.429,0.461,-0.716,23.499,74.585,14.832
-0.445,0.471,-0.695,19.531,69.519,12.451
-0.461,0.477,-0.683,20.264,63.232,11.23
-0.485,0.471,-0.698,21.057,56.641,10.681
-0.511,0.457,-0.717,17.517,52.002,11.169
-0.522,0.451,-0.727,16.296,50.964,12.512
-0.521,0.459,-0.726,17.273,53.101,14.832
-0.516,0.465,-0.717,15.259,57.007,17.395
-0.514,0.462,-0.7,18.127,62.866,17.639
-0.51,0.463,-0.673,19.348,68.665,16.418
-0.512,0.465,-0.651,22.766,72.51,14.221
-0.518,0.464,-0.643,26.245,73.547,12.024
-0.523,0.469,-0.645,28.32,71.411,9.827
-0.534,0.475,-0.654,30.151,67.139,7.019
-0.559,0.482,-0.662,29.358,61.584,4.395
-0.589,0.484,-0.677,27.466,55.176,3.174
-0.613,0.487,-0.684,21.729,49.316,3.784
-0.634,0.494,-0.679,19.165,45.349,4.639
-0.65,0.5,-0.665,13.55,42.664,6.409
-0.648,0.512,-0.645,10.986,40.649,8.85
-0.645,0.519,-0.631,11.902,38.635,11.23
-0.64,0.517,-0.621,10.864,35.828,13.733
-0.623,0.508,-0.617,13.184,32.654,15.015
-0.608,0.5,-0.623,16.724,29.297,14.282
-0.615,0.491,-0.642,18.127,25.818,11.597
-0.634,0.492,-0.654,16.235,23.071,8.911
-0.66,0.498,-0.653,15.259,21.545,7.202
-0.684,0.501,-0.647,10.071,20.569,7.69
-0.698,0.504,-0.636,5.188,20.996,9.949
-0.697,0.496,-0.611,4.395,22.339,12.512
-0.681,0.497,-0.572,4.028,23.01,15.259
-0.653,0.499,-0.544,1.892,20.508,18.433
-0.627,0.495,-0.536,5.005,15.625,19.409
-0.615,0.498,-0.555,7.996,9.033,17.639
-0.628,0.491,-0.586,9.705,2.441,14.465
-0.65,0.492,-0.614,8.545,-2.502,11.23
-0.673,0.494,-0.63,6.958,-5.493,9.094
-0.699,0.504,-0.632,4.639,-7.263,8.301
-0.715,0.511,-0.633,1.526,-7.019,9.338
-0.731,0.51,-0.637,0.671,-4.517,11.414
-0.74,0.505,-0.634,-2.258,0.732,15.32
-0.731,0.493,-0.619,-1.099,8.301,20.142
-0.705,0.482,-0.597,-1.526,15.93,25.208
-0.663,0.47,-0.589,1.831,21.667,28.625
-0.633,0.456,-0.599,5.554,24.536,28.625
-0.617,0.442,-0.618,7.507,25.513,25.452
-0.61,0.434,-0.634,8.545,23.926,21.545
-0.61,0.436,-0.646,5.432,20.203,18.433
-0.625,0.438,-0.651,4.578,15.564,14.893
-0.653,0.449,-0.647,-0.244,12.939,12.756
-0.683,0.454,-0.632,-2.747,13.977,12.451
-0.712,0.428,-0.613,-2.441,19.348,15.137
-0.712,0.408,-0.591,-3.174,27.71,19.775
-0.682,0.412,-0.565,0,36.316,23.376
-0.658,0.405,-0.549,3.601,41.748,25.33
-0.634,0.4,-0.556,6.165,43.579,25.269
-0.619,0.392,-0.574,10.864,42.969,21.851
-0.625,0.39,-0.593,14.771,40.527,16.724
-0.64,0.401,-0.606,12.207,35.828,12.451
-0.663,0.412,-0.614,10.986,31.494,9.277
-0.693,0.421,-0.614,7.019,28.442,7.69
-0.724,0.426,-0.604,2.075,27.954,7.874
-0.753,0.426,-0.579,-2.625,30.884,10.376
-0.767,0.425,-0.553,-1.587,36.255,14.16
-0.757,0.415,-0.522,2.747,43.03,18.738
-0.736,0.41,-0.498,7.08,48.096,22.705
-0.711,0.409,-0.49,9.766,51.27,24.536
-0.7,0.409,-0.496,14.404,52.124,23.01
-0.703,0.409,-0.513,21.24,51.697,19.47
-0.719,0.411,-0.531,24.231,51.392,15.991
-0.745,0.414,-0.55,21.912,51.392,14.404
-0.774,0.403,-0.563,19.287,53.04,14.832
-0.794,0.38,-0.555,17.7,57.007,16.479
-0.796,0.363,-0.531,15.381,63.049,19.287
-0.786,0.349,-0.5,14.343,69.092,21.606
-0.772,0.348,-0.464,12.207,74.28,23.01
-0.749,0.36,-0.426,11.047,77.881,23.132
-0.731,0.367,-0.401,12.207,77.576,21.851
-0.726,0.372,-0.397,17.395,73.364,18.372
-0.738,0.377,-0.409,20.325,66.956,13.733
-0.769,0.386,-0.422,18.616,59.998,9.705
-0.809,0.403,-0.432,17.212,53.833,7.568
-0.855,0.409,-0.441,16.174,50.842,8.24
-0.885,0.394,-0.443,14.648,51.453,11.23
-0.889,0.377,-0.431,12.939,55.725,15.015
-0.876,0.37,-0.405,12.329,62.378,17.822
-0.863,0.366,-0.376,12.024,68.481,18.982
-0.854,0.37,-0.352,14.221,73.12,18.127
-0.849,0.382,-0.33,18.555,76.477,16.357
-0.856,0.4,-0.314,21.729,77.759,14.282
-0.87,0.407,-0.314,23.987,77.026,12.817
-0.884,0.414,-0.33,24.231,75.256,12.939
-0.902,0.413,-0.345,23.499,74.097,13.489
-0.921,0.399,-0.355,23.987,74.829,14.587
-0.937,0.386,-0.35,23.987,78.857,17.334
-0.935,0.373,-0.328,21.484,85.571,20.874
-0.91,0.365,-0.299,17.822,92.773,24.536
-0.874,0.354,-0.263,18.921,98.083,26.123
-0.838,0.352,-0.224,20.874,100.159,25.391
-0.825,0.359,-0.194,19.104,97.9,23.56
-0.836,0.368,-0.177,19.592,92.773,20.081
-0.865,0.376,-0.159,21.973,87.952,17.334
-0.891,0.382,-0.144,25.513,84.473,17.273
-0.906,0.374,-0.142,26.123,82.092,19.287
-0.918,0.357,-0.147,27.161,81.299,21.301
-0.924,0.338,-0.153,30.884,82.275,22.278
-0.929,0.311,-0.158,29.48,84.29,23.071
-0.927,0.291,-0.159,28.198,86.121,23.376
-0.913,0.293,-0.152,27.954,87.036,23.132
-0.904,0.302,-0.129,22.949,85.815,22.217
0.012,-0.49,1.177,8.057,-189.575,-65.186
-0.063,-0.49,1.186,9.827,-215.454,-79.468
-0.142,-0.505,1.177,13.977,-240.845,-90.759
-0.207,-0.507,1.136,19.165,-266.663,-99.915
-0.252,-0.501,1.059,24.597,-291.382,-106.995
-0.271,-0.522,0.98,24.719,-315.735,-114.746
-0.275,-0.563,0.887,21.179,-337.952,-124.512
-0.269,-0.578,0.799,14.893,-358.826,-134.216
-0.287,-0.571,0.708,7.141,-378.967,-144.714
-0.359,-0.513,0.603,-6.104,-395.142,-154.541
-0.451,-0.46,0.535,-22.949,-397.4,-160.095
-0.515,-0.415,0.526,-38.513,-386.23,-161.926
-0.54,-0.382,0.551,-55.176,-369.934,-163.208
-0.519,-0.327,0.576,-62.5,-355.408,-169.678
-0.521,-0.263,0.595,-65.369,-352.051,-182.373
-0.543,-0.179,0.558,-66.162,-361.267,-196.899
-0.571,-0.141,0.446,-59.631,-374.756,-211.06
-0.588,-0.129,0.299,-58.533,-387.329,-223.206
-0.615,-0.082,0.173,-61.462,-397.827,-234.68
-0.642,-0.006,0.045,-70.923,-402.649,-244.629
-0.756,0.073,-0.109,-75.378,-397.339,-253.296
-0.912,0.16,-0.227,-83.862,-384.155,-254.089
-1.023,0.247,-0.284,-92.834,-363.403,-243.042
-1.071,0.293,-0.33,-99.548,-342.102,-225.098
-1.04,0.319,-0.389,-102.234,-322.632,-204.712
-0.923,0.385,-0.416,-104.919,-306.213,-187.683
-0.79,0.395,-0.39,-106.323,-293.213,-177.307
-0.662,0.395,-0.386,-101.746,-286.621,-176.697
-0.555,0.389,-0.405,-99.609,-284.485,-183.533
-0.522,0.4,-0.459,-92.59,-282.166,-194.702
-0.575,0.44,-0.513,-91.064,-278.931,-201.111
-0.601,0.503,-0.54,-90.454,-277.527,-196.533
-0.573,0.585,-0.6,-90.088,-280.457,-183.838
-0.542,0.645,-0.689,-89.661,-278.809,-169.617
-0.496,0.706,-0.721,-93.018,-266.235,-157.959
-0.405,0.758,-0.663,-97.595,-249.268,-149.231
-0.338,0.793,-0.578,-94.971,-235.84,-146.301
-0.28,0.841,-0.515,-90.271,-227.783,-146.973
-0.284,0.83,-0.491,-76.66,-221.375,-146.545
-0.297,0.832,-0.49,-59.753,-214.111,-145.691
-0.314,0.83,-0.527,-47.729,-207.947,-139.893
-0.347,0.812,-0.57,-33.936,-203.796,-127.625
-0.328,0.78,-0.66,-25.33,-199.768,-112.427
-0.266,0.719,-0.77,-17.7,-185.364,-99.365
-0.198,0.653,-0.858,-15.198,-161.926,-92.59
-0.101,0.644,-0.839,-19.897,-141.174,-87.28
-0.016,0.676,-0.789,-21.423,-131.104,-80.261
0.027,0.679,-0.773,-24.109,-131.531,-73.181
0.034,0.686,-0.755,-25.452,-135.315,-68.542
-0.017,0.718,-0.719,-24.963,-132.69,-66.65
-0.085,0.735,-0.679,-23.987,-121.094,-63.904
-0.119,0.764,-0.684,-15.137,-101.563,-58.289
-0.115,0.719,-0.808,-3.052,-76.721,-49.927
-0.087,0.659,-0.935,-1.16,-45.837,-43.335
-0.007,0.603,-0.965,-10.315,-24.048,-35.95
0.102,0.621,-0.877,-30.334,-23.621,-27.161
0.196,0.709,-0.71,-48.706,-40.161,-25.146
0.171,0.738,-0.616,-58.044,-66.772,-33.997
0.034,0.775,-0.608,-55.786,-92.957,-48.889
-0.152,0.848,-0.633,-54.504,-110.596,-61.584
-0.342,0.867,-0.707,-46.021,-116.821,-64.758
-0.488,0.849,-0.822,-37.17,-109.192,-53.406
-0.554,0.778,-0.938,-28.687,-84.412,-27.527
-0.457,0.712,-1.003,-21.362,-49.133,5.981
-0.252,0.646,-1.006,-22.522,-12.024,36.804
0.019,0.566,-0.952,-25.024,19.348,55.969
0.276,0.543,-0.835,-27.161,32.471,60.364
0.424,0.505,-0.686,-28.32,26.062,50.72
0.461,0.483,-0.606,-26.306,6.104,31.982
0.394,0.47,-0.636,-21.79,-17.7,10.62
0.279,0.479,-0.724,-16.296,-35.645,-7.324
0.144,0.52,-0.806,-12.39,-43.579,-19.348
0.007,0.577,-0.869,-9.094,-43.335,-24.719
-0.108,0.598,-0.911,-6.897,-38.269,-21.484
-0.15,0.613,-0.942,-5.798,-30.334,-12.451
-0.113,0.614,-0.941,-4.578,-19.897,-1.831
-0.042,0.604,-0.909,-3.418,-8.484,7.751
0.033,0.575,-0.871,-2.197,1.831,13.184
0.09,0.548,-0.845,2.014,9.521,14.954
0.123,0.535,-0.829,8.789,12.268,12.329
0.112,0.53,-0.829,14.771,10.254,7.812
0.072,0.531,-0.85,17.151,6.042,2.38
0.024,0.52,-0.906,17.822,1.831,-1.099
-0.007,0.53,-0.956,16.052,-0.183,-2.014
-0.025,0.532,-0.978,14.465,0.305,-1.648
-0.018,0.55,-0.965,10.498,3.174,0.244
-0.007,0.556,-0.933,5.066,7.324,1.953
-0.007,0.544,-0.897,5.005,10.376,2.563
0.007,0.55,-0.857,3.235,11.047,5.493
0.012,0.558,-0.832,5.554,11.841,7.385
-0.001,0.544,-0.841,11.597,13.306,7.019
-0.017,0.533,-0.848,12.573,16.174,7.019
-0.018,0.533,-0.852,14.954,19.104,7.874
-0.012,0.522,-0.855,16.724,20.447,8.606
0,0.525,-0.859,16.235,20.081,8.667
0,0.518,-0.872,15.442,15.808,7.874
0.001,0.495,-0.893,14.038,9.827,7.507
0.018,0.496,-0.896,9.766,5.127,8.301
0.027,0.497,-0.882,3.784,2.93,8.789
0.032,0.492,-0.867,3.723,3.662,7.568
0.037,0.498,-0.853,5.066,5.859,6.897
0.038,0.495,-0.834,6.348,7.751,6.104
0.028,0.504,-0.834,10.132,8.606,5.249
0.008,0.504,-0.843,11.719,9.399,5.005
-0.009,0.503,-0.859,16.113,10.498,4.578
-0.021,0.505,-0.873,16.235,10.864,5.005
-0.03,0.502,-0.897,14.526,9.949,5.31
-0.032,0.495,-0.92,11.78,7.874,5.859
-0.025,0.492,-0.936,10.925,5.432,5.981
-0.02,0.491,-0.938,6.836,3.845,6.165
-0.011,0.494,-0.929,2.991,4.211,6.714
-0.004,0.497,-0.909,2.869,6.042,6.226
-0.006,0.505,-0.883,3.296,8.484,5.432
-0.008,0.512,-0.854,4.15,9.949,5.249
-0.013,0.506,-0.839,3.845,10.376,5.188
-0.014,0.5,-0.837,6.958,10.193,3.967
-0.015,0.494,-0.859,11.597,8.972,2.502
-0.019,0.495,-0.888,12.085,7.019,1.892
-0.03,0.501,-0.908,9.094,5.005,1.648
-0.387,0.587,-0.779,-0.305,-4.944,4.517
-0.404,0.606,-0.779,0.244,-4.517,6.531
-0.415,0.61,-0.785,0.305,0.122,8.606
-0.411,0.6,-0.8,2.93,7.935,10.01
-0.392,0.593,-0.803,5.188,15.564,11.353
-0.37,0.59,-0.79,5.371,20.081,12.024
-0.361,0.587,-0.774,4.517,20.142,11.841
-0.366,0.589,-0.762,4.395,17.395,11.292
-0.384,0.594,-0.756,2.869,14.709,10.62
-0.399,0.595,-0.763,4.944,13.855,10.01
-0.402,0.59,-0.77,2.808,14.709,10.925
-0.394,0.578,-0.772,0.183,16.418,11.719
-0.383,0.582,-0.766,-0.366,17.334,11.23
-0.366,0.58,-0.76,-5.676,14.893,11.719
-0.352,0.556,-0.751,-9.277,8.545,11.597
-0.332,0.53,-0.754,-13.794,-0.549,10.315
-0.324,0.532,-0.747,-21.973,-13,8.423
-0.333,0.538,-0.751,-26.184,-28.381,5.066
-0.373,0.547,-0.768,-28.32,-39.917,1.648
-0.42,0.568,-0.786,-30.334,-43.091,-0.122
-0.467,0.574,-0.802,-26.001,-36.499,0.549
-0.497,0.575,-0.813,-22.217,-22.705,4.456
-0.502,0.577,-0.817,-16.907,-3.845,10.681
-0.491,0.554,-0.808,-8.301,17.334,17.639
-0.47,0.527,-0.772,-2.502,38.147,23.926
-0.418,0.496,-0.734,1.221,55.359,28.687
-0.345,0.444,-0.714,8.484,63.782,30.823
-0.265,0.426,-0.712,9.277,57.861,29.419
-0.232,0.421,-0.728,3.235,38.452,23.743
-0.249,0.43,-0.762,-3.54,13.306,14.465
-0.309,0.452,-0.799,-9.827,-8.24,4.639
-0.383,0.483,-0.826,-18.005,-21.606,-2.014
-0.455,0.5,-0.845,-19.592,-23.926,-4.639
-0.5,0.526,-0.848,-19.592,-16.113,-3.357
-0.526,0.528,-0.837,-18.433,-1.404,0.916
-0.539,0.517,-0.802,-16.724,16.113,8.728
-0.524,0.486,-0.755,-11.047,33.142,17.212
-0.485,0.468,-0.725,-0.61,46.387,24.109
-0.435,0.46,-0.718,7.263,54.749,28.381
-0.392,0.452,-0.726,13.428,59.387,28.32
-0.373,0.446,-0.743,19.348,60.303,24.414
-0.388,0.447,-0.765,19.348,57.068,19.165
-0.427,0.458,-0.784,20.63,52.612,13.977
-0.478,0.47,-0.793,18.005,50.049,11.414
-0.515,0.504,-0.786,12.573,51.514,11.841
-0.551,0.514,-0.772,9.277,58.411,15.137
-0.578,0.472,-0.755,10.071,69.641,19.287
-0.58,0.42,-0.718,11.597,82.336,23.499
-0.533,0.411,-0.67,13.062,91.064,27.71
-0.471,0.423,-0.639,12.39,90.637,30.457
-0.424,0.421,-0.628,10.681,82.52,28.931
-0.415,0.423,-0.635,12.268,68.909,23.315
-0.445,0.431,-0.662,12.085,52.49,16.541
-0.497,0.45,-0.696,7.324,38.025,11.719
-0.553,0.47,-0.719,3.54,29.602,9.949
-0.596,0.497,-0.731,1.404,28.381,10.742
-0.631,0.508,-0.729,-1.648,34.18,14.343
-0.665,0.488,-0.715,1.221,45.715,18.921
-0.683,0.454,-0.698,3.113,61.523,24.597
-0.679,0.417,-0.672,4.578,78.735,29.358
-0.654,0.404,-0.647,7.812,93.689,32.898
-0.618,0.411,-0.623,11.902,103.455,34.973
-0.601,0.418,-0.622,12.512,106.14,35.339
-0.602,0.422,-0.629,11.719,104.858,33.752
-0.62,0.442,-0.639,13,102.356,31.372
-0.647,0.456,-0.647,9.521,100.769,30.334
-0.672,0.465,-0.647,9.033,101.013,30.273
-0.705,0.463,-0.637,7.019,103.76,32.41
-0.741,0.436,-0.62,8.911,108.887,35.522
-0.766,0.4,-0.606,11.719,115.845,39.307
-0.778,0.374,-0.584,10.437,124.207,43.762
-0.773,0.36,-0.562,11.597,133.362,46.265
-0.755,0.365,-0.529,14.771,142.334,47.241
-0.735,0.381,-0.502,13.123,147.766,47.607
-0.725,0.39,-0.486,15.198,148.682,45.898
-0.735,0.391,-0.469,16.724,146.973,43.152
-0.751,0.404,-0.458,19.897,143.677,39.246
-0.785,0.417,-0.458,20.081,139.771,36.56
-0.792,0.408,-0.463,21.973,137.268,35.706
-0.921,0.379,-0.449,22.4,138.55,40.283
-0.965,0.354,-0.416,22.034,143.005,42.419
-0.965,0.322,-0.374,21.729,149.231,42.297
-0.931,0.303,-0.33,21.118,156.433,44.128
-0.899,0.301,-0.285,20.081,159.79,46.57
-0.874,0.317,-0.254,21.973,158.447,46.143
-0.868,0.333,-0.232,21.545,153.992,43.945
-0.888,0.351,-0.217,25.146,147.827,40.955
-0.927,0.378,-0.207,26.428,143.188,39.246
-0.966,0.382,-0.21,29.968,141.602,39.612
-0.989,0.362,-0.22,31.921,143.372,41.748
-1.003,0.335,-0.221,31.128,147.705,43.945
-1.009,0.324,-0.198,29.968,156.128,45.837
-1.001,0.315,-0.156,28.198,167.48,48.706
-0.99,0.307,-0.103,30.151,178.284,51.88
-0.976,0.302,-0.052,35.034,187.5,53.528
-0.968,0.292,-0.019,39.429,194.58,54.321
-0.962,0.291,0,44.373,202.026,54.443
-0.959,0.289,0.01,48.828,211.914,53.223
-0.956,0.278,0.026,51.208,223.511,50.598
-0.954,0.26,0.054,55.115,237.61,46.265
-0.949,0.244,0.093,55.176,253.723,41.321
-0.943,0.229,0.141,59.57,271.057,36.621
-0.929,0.211,0.194,65.125,288.574,32.837
-0.886,0.194,0.243,66.956,302.612,31.067
-0.845,0.168,0.283,73.181,311.34,29.907
-0.811,0.133,0.313,75.623,314.88,29.48
-0.762,0.104,0.35,72.083,312.073,29.053
-0.715,0.083,0.402,67.688,302.124,26.611
-0.692,0.064,0.474,58.105,286.926,23.621
-0.692,0.074,0.548,50.415,268.799,21.79
-0.713,0.117,0.61,42.603,251.831,22.461
-0.739,0.155,0.646,42.847,242.554,25.208
-0.731,0.153,0.661,46.692,243.408,29.236
-0.696,0.125,0.646,56.335,251.038,32.288
-0.638,0.098,0.617,60.669,262.634,34.668
-0.547,0.07,0.625,62.134,273.01,36.011
-0.456,0.047,0.65,54.26,275.452,37.476
-0.384,0.029,0.706,41.87,265.686,38.94
-0.348,-0.001,0.804,27.039,246.033,41.382
-0.956,0.194,-0.773,-79.956,-445.801,-135.803
-0.924,0.2,-0.835,-73.669,-422.18,-131.287
-0.859,0.216,-0.874,-69.58,-391.541,-127.319
-0.816,0.254,-0.884,-67.81,-360.596,-123.047
-0.761,0.311,-0.856,-64.88,-328.979,-116.821
-0.671,0.347,-0.812,-56.885,-298.157,-108.765
-0.572,0.39,-0.762,-45.288,-271.606,-102.417
-0.468,0.434,-0.721,-30.212,-249.573,-99.854
-0.387,0.433,-0.728,-13.306,-231.506,-99.792
-0.334,0.473,-0.742,-2.808,-218.811,-102.6
-0.272,0.554,-0.766,1.648,-214.905,-105.53
-0.224,0.61,-0.832,4.15,-215.149,-109.009
-0.21,0.647,-0.9,5.493,-209.961,-114.563
-0.234,0.677,-0.951,5.066,-200.378,-118.042
-0.261,0.67,-0.965,3.479,-188.477,-116.394
-0.264,0.695,-0.919,1.099,-174.438,-111.145
-0.228,0.74,-0.826,-1.099,-160.339,-101.929
-0.165,0.732,-0.807,2.38,-142.7,-91.492
-0.107,0.713,-0.776,10.193,-122.192,-86.731
-0.045,0.69,-0.763,16.479,-102.234,-85.205
-0.007,0.66,-0.762,23.437,-82.581,-85.327
0.02,0.654,-0.748,27.588,-71.411,-85.205
0.004,0.669,-0.739,27.771,-66.65,-85.876
-0.042,0.68,-0.744,28.809,-62.805,-86.609
-0.104,0.713,-0.77,29.663,-58.289,-85.999
-0.16,0.719,-0.821,30.09,-54.565,-81.726
-0.197,0.696,-0.882,28.381,-49.011,-74.524
-0.228,0.66,-0.927,23.01,-40.283,-67.688
-0.241,0.632,-0.957,14.832,-32.837,-60.425
-0.232,0.645,-0.93,2.014,-29.236,-52.368
-0.245,0.65,-0.887,-6.47,-30.701,-45.227
-0.273,0.633,-0.84,-14.954,-34.363,-38.391
-0.267,0.636,-0.8,-17.761,-34.119,-30.212
-0.248,0.602,-0.781,-18.372,-30.396,-17.761
-0.195,0.582,-0.768,-13.062,-20.569,-3.54
-0.13,0.536,-0.781,-6.836,-7.812,7.69
-0.054,0.475,-0.817,-3.113,3.784,15.32
0.028,0.472,-0.824,-1.282,12.695,19.043
0.07,0.455,-0.795,-3.296,15.869,19.043
0.089,0.438,-0.761,-2.319,13.733,15.198
0.09,0.437,-0.735,-1.526,8.118,10.132
0.078,0.459,-0.731,-2.441,1.16,4.211
0.055,0.467,-0.755,1.648,-5.31,-2.319
0.014,0.474,-0.797,5.676,-11.047,-8.423
-0.03,0.477,-0.836,5.127,-14.771,-12.085
-0.064,0.498,-0.85,4.395,-15.747,-13.733
-0.112,0.516,-0.851,4.089,-15.442,-12.878
-0.162,0.512,-0.847,1.221,-12.756,-8.484
-0.172,0.506,-0.852,3.174,-6.47,-2.502
-0.143,0.519,-0.858,5.005,1.16,3.479
-0.11,0.505,-0.867,5.859,8.423,7.874
-0.07,0.5,-0.871,8.789,13.306,9.277
-0.041,0.482,-0.87,6.592,11.658,9.216
-0.027,0.472,-0.861,5.493,4.944,8.179
-0.023,0.486,-0.851,2.258,-2.563,7.385
-0.043,0.48,-0.847,1.343,-8.118,5.92
-0.05,0.494,-0.843,1.892,-9.399,5.981
-0.052,0.488,-0.852,6.042,-5.92,5.615
-0.042,0.493,-0.858,8.362,-0.061,5.432
-0.035,0.502,-0.866,15.564,7.019,3.662
-0.049,0.494,-0.882,19.165,12.207,1.892
-0.058,0.495,-0.891,20.081,13.611,0.671
-0.075,0.49,-0.896,20.02,10.803,-0.061
-0.087,0.479,-0.905,15.869,6.47,0.793
-0.087,0.487,-0.906,9.827,3.601,3.479
-0.083,0.485,-0.907,8.728,3.479,5.249
-0.072,0.476,-0.906,9.644,5.432,6.165
-0.057,0.492,-0.896,8.24,8.057,7.263
-0.06,0.491,-0.882,7.935,9.338,7.08
-0.068,0.501,-0.868,9.338,10.376,6.104
-0.083,0.508,-0.87,13,11.414,5.249
-0.091,0.487,-0.881,13.611,12.451,6.226
-0.079,0.485,-0.889,13.062,14.282,8.362
-0.064,0.478,-0.893,14.099,14.465,9.583
-0.056,0.47,-0.899,13.306,12.207,10.071
-0.042,0.459,-0.912,11.23,8.118,9.827
-0.041,0.463,-0.92,8.423,2.686,9.583
-0.043,0.466,-0.915,6.042,-1.038,8.179
-0.049,0.474,-0.899,5.432,-1.16,6.897
-0.056,0.469,-0.881,7.751,2.502,5.493
-0.061,0.47,-0.867,10.925,7.874,4.089
-0.066,0.469,-0.861,13.611,12.268,3.662
-0.072,0.469,-0.865,15.137,15.076,3.784
-0.067,0.467,-0.875,15.137,16.541,4.517
-0.064,0.46,-0.883,12.817,16.541,4.944
-0.055,0.458,-0.891,11.169,14.282,4.089
-0.053,0.456,-0.895,9.827,9.399,2.502
-0.054,0.455,-0.895,5.92,3.662,1.465
-0.053,0.461,-0.891,3.113,-1.465,0.732
-0.058,0.467,-0.893,2.441,-4.089,0.183
-0.07,0.468,-0.895,3.601,-3.296,-0.793
-0.083,0.472,-0.893,6.165,0.916,-1.343
-0.096,0.478,-0.891,9.338,6.958,-1.038
-0.1,0.477,-0.893,11.902,12.756,0.244
-0.094,0.477,-0.899,12.573,16.418,1.77
-0.087,0.476,-0.904,10.193,16.541,2.93
-0.083,0.476,-0.907,10.071,13.977,2.991
-0.085,0.485,-0.911,9.521,9.094,2.686
-0.1,0.492,-0.922,8.179,4.333,2.197
-0.115,0.494,-0.929,6.836,2.014,1.77
-0.122,0.488,-0.929,5.554,3.052,2.258
-0.116,0.49,-0.917,2.869,6.897,4.089
-0.108,0.493,-0.898,3.601,12.329,5.432
-0.103,0.484,-0.89,6.653,18.311,5.554
-0.09,0.475,-0.891,9.888,23.437,5.432
-0.079,0.467,-0.891,11.963,25.452,4.761
-0.08,0.466,-0.895,11.719,23.376,3.296
-0.093,0.475,-0.898,9.583,17.517,1.831
-0.113,0.479,-0.903,8.423,10.498,0.916
-0.132,0.485,-0.905,7.751,5.432,0.488
-0.153,0.491,-0.911,5.432,2.869,1.526
-0.167,0.49,-0.916,4.883,3.418,3.601
-0.163,0.482,-0.915,5.432,6.409,6.714
-0.143,0.471,-0.905,3.235,10.864,10.742
-0.112,0.451,-0.889,2.502,15.808,13.489
-0.084,0.447,-0.872,3.723,20.264,13.916
-0.071,0.445,-0.859,5.127,23.01,12.268
-0.069,0.445,-0.853,6.348,23.437,9.583
-0.083,0.448,-0.852,6.836,21.423,6.47
-0.494,0.394,-0.824,-3.845,30.518,15.869
-0.501,0.383,-0.81,-3.662,36.011,15.93
-0.488,0.382,-0.804,0.427,44.739,15.442
-0.467,0.378,-0.805,6.165,53.528,13.733
-0.45,0.37,-0.819,13.245,61.035,10.315
-0.45,0.366,-0.829,17.029,66.04,5.92
-0.463,0.37,-0.84,20.752,69.031,2.014
-0.494,0.376,-0.844,22.644,71.655,-0.244
-0.536,0.383,-0.841,23.376,75.073,-0.977
-0.574,0.374,-0.832,25.391,81.116,0.427
-0.601,0.354,-0.81,23.193,89.661,4.517
-0.601,0.345,-0.785,23.682,97.961,8.789
-0.576,0.351,-0.756,22.4,103.516,12.878
-0.55,0.356,-0.736,22.156,104.187,15.137
-0.524,0.364,-0.727,24.658,99.426,15.076
